sep=,
DeviceTag:,PantoD
FirmwareVersion:,2.2.1
AppVersion:,2022.0.0
SyncStatus:,Synced
OutputRate:,60Hz
FilterProfile:,Dynamic
Measurement Mode:,Inertial data Mode - Rate Quantities(with mag)
StartTime: ,2023-07-12_11:46:10_585 GMT-5
© Xsens Technologies B. V. 2005-2023

PacketCounter,SampleTimeFine,Acc_X,Acc_Y,Acc_Z,Gyr_X,Gyr_Y,Gyr_Z,Mag_X,Mag_Y,Mag_Z
1,3131512564,9.679029,-0.758853,0.889717,1.173452,0.478132,-3.624300,-0.362793,-0.140625,0.965576
2,3131529231,9.767966,-0.775597,0.840733,0.080315,0.436216,-2.927032,-0.364502,-0.137207,0.965576
3,3131545898,9.796581,-0.951749,0.709518,0.812505,0.377486,-2.405814,-0.365479,-0.142334,0.969971
4,3131562565,9.831414,-1.051539,0.639046,1.743130,0.440519,-2.500478,-0.368896,-0.141357,0.966553
5,3131579232,9.745505,-1.084909,0.596711,2.155123,0.343703,-2.910051,-0.369873,-0.143066,0.965576
6,3131595899,9.843063,-1.067880,0.620691,2.986486,0.147087,-3.441796,-0.365234,-0.141357,0.965576
7,3131612566,9.839767,-0.932689,0.610185,3.845318,-0.096816,-3.814180,-0.363525,-0.143311,0.965576
8,3131629233,9.792567,-0.744210,0.753576,3.842372,-0.040660,-3.362615,-0.370605,-0.137939,0.963867
9,3131645900,9.785868,-0.568421,0.764576,1.260599,-0.162180,-2.633562,-0.362793,-0.136230,0.963867
10,3131662567,9.803917,-0.694830,0.689898,-0.514060,-0.374535,-1.577653,-0.364502,-0.140625,0.962158
11,3131679234,9.809667,-0.895652,0.650309,0.070569,-0.103591,-1.097684,-0.365234,-0.141602,0.962891
12,3131695901,9.756467,-0.853642,0.674733,1.132715,0.087090,-0.802510,-0.367188,-0.144043,0.964844
13,3131712568,9.767897,-0.815222,0.646949,1.071885,0.236796,-0.509398,-0.370605,-0.142334,0.963867
14,3131729235,9.795683,-0.920336,0.629472,1.016305,0.405481,-0.385919,-0.370605,-0.139648,0.966553
15,3131745902,9.815073,-0.966010,0.623663,1.631279,0.499057,-0.531169,-0.365234,-0.142334,0.966553
16,3131762569,9.770518,-0.965450,0.717152,1.622801,0.448267,-0.754448,-0.370605,-0.140625,0.962158
17,3131779236,9.767094,-0.819543,0.834462,0.743979,0.133615,-1.009345,-0.367920,-0.141357,0.963867
18,3131795903,9.806117,-0.779627,0.791554,-0.467406,-0.000346,-0.856348,-0.368896,-0.138916,0.962158
19,3131812570,9.779415,-0.937821,0.739077,0.228664,-0.123697,-0.716413,-0.367920,-0.141357,0.965576
20,3131829237,9.761313,-0.931306,0.629009,1.109011,-0.181696,-0.773043,-0.367920,-0.138672,0.965576
21,3131845904,9.771259,-1.041940,0.648281,1.804280,-0.565528,-0.932584,-0.365234,-0.140625,0.961182
22,3131862571,9.784366,-0.823500,0.705381,1.597483,-0.140165,-1.208356,-0.370605,-0.141357,0.961182
23,3131879238,9.852190,-0.934654,0.660699,1.055634,0.224053,-1.640224,-0.366211,-0.141357,0.963867
24,3131895905,9.814754,-1.008310,0.655347,2.085380,0.620333,-2.004168,-0.367920,-0.139648,0.967285
25,3131912572,9.890038,-0.946440,0.696056,2.688776,0.744376,-2.460945,-0.367188,-0.140625,0.960449
26,3131929239,9.866726,-0.791973,0.665239,2.824588,0.683507,-2.588113,-0.368896,-0.137939,0.962158
27,3131945906,9.884724,-0.760202,0.631349,3.139560,0.838272,-2.488786,-0.367188,-0.138916,0.960449
28,3131962573,9.786298,-0.863737,0.654494,3.398952,1.045875,-2.527794,-0.370605,-0.136963,0.961182
29,3131979240,9.729138,-0.963621,0.715198,3.944004,1.222373,-2.667639,-0.369629,-0.138672,0.963867
30,3131995907,9.760034,-0.682801,0.783665,4.051359,1.202343,-2.337402,-0.366211,-0.135254,0.964600
31,3132012574,9.797198,-0.597768,0.726708,3.696034,1.233412,-1.771029,-0.368896,-0.137939,0.958496
32,3132029241,9.777122,-0.789293,0.715569,4.243289,1.064739,-1.262258,-0.370605,-0.134521,0.961182
33,3132045908,9.720222,-0.787639,0.794998,4.877164,1.050345,-1.068447,-0.367920,-0.135254,0.962158
34,3132062575,9.779548,-0.550529,0.816616,3.258403,0.757771,-0.638205,-0.375977,-0.136963,0.962891
35,3132079242,9.825044,-0.547014,0.808400,1.211180,0.555674,-0.096560,-0.368896,-0.134521,0.959473
36,3132095909,9.808877,-0.788507,0.827537,1.024399,0.139480,0.382391,-0.367920,-0.132812,0.958496
37,3132112576,9.790562,-0.719446,0.841036,1.495903,-0.059588,0.533109,-0.369629,-0.130127,0.962891
38,3132129243,9.796530,-0.536217,0.829867,0.268171,-0.280702,1.037487,-0.372314,-0.130859,0.963867
39,3132145910,9.826845,-0.611742,0.760627,-1.041399,-0.498346,1.679520,-0.368896,-0.136230,0.960449
40,3132162577,9.817508,-0.813431,0.732381,-1.362813,-0.637065,1.878519,-0.366211,-0.133545,0.961182
41,3132179244,9.771641,-0.752321,0.772410,-1.437039,-0.847588,1.925146,-0.369629,-0.131104,0.958496
42,3132195911,9.744642,-0.681662,0.804161,-2.445334,-0.935312,2.261787,-0.375977,-0.130859,0.957764
43,3132212578,9.786760,-0.798998,0.770202,-2.281054,-0.865722,2.621389,-0.371582,-0.137939,0.962891
44,3132229245,9.752691,-0.874487,0.766128,-1.172511,-0.986050,2.749043,-0.370605,-0.134277,0.964600
45,3132245912,9.814916,-0.782858,0.761041,-1.279482,-1.081150,2.778100,-0.371582,-0.131836,0.957764
46,3132262579,9.807361,-0.813994,0.705019,-1.629749,-0.895676,2.959196,-0.371582,-0.135254,0.964600
47,3132279246,9.814060,-0.843536,0.751998,-2.229624,-1.122861,2.941728,-0.372314,-0.134521,0.962158
48,3132295913,9.799590,-0.822841,0.720832,-2.420772,-1.005286,2.802292,-0.372314,-0.138672,0.964844
49,3132312580,9.732019,-0.952480,0.746619,-2.014439,-1.014455,2.743165,-0.371582,-0.134521,0.962891
50,3132329247,9.737482,-0.815423,0.837108,-3.216225,-1.279841,2.477049,-0.367920,-0.136230,0.960449
51,3132345914,9.794060,-0.900045,0.757765,-5.766495,-0.299003,2.430870,-0.367920,-0.137207,0.960449
52,3132362581,9.734774,-0.982258,0.735069,-4.892961,-0.525406,2.517748,-0.369629,-0.139648,0.962158
53,3132379248,9.830262,-0.886225,0.642408,-3.322185,-0.685101,2.680721,-0.371582,-0.141357,0.964844
54,3132395915,9.844198,-0.963030,0.651436,-3.182352,-0.125233,2.648859,-0.369629,-0.140625,0.962891
55,3132412582,9.816430,-1.027706,0.537916,-1.874171,0.212784,2.137604,-0.373291,-0.143066,0.960449
56,3132429249,9.711840,-1.036532,0.674603,-2.605222,0.097757,1.690150,-0.374268,-0.142090,0.966553
57,3132445916,9.839427,-0.523990,1.055497,-8.837511,-1.610245,1.112699,-0.369873,-0.144043,0.965576
58,3132462583,9.799621,-0.629899,1.047838,-14.263787,-2.444619,1.467308,-0.369629,-0.145752,0.962158
59,3132479250,9.678784,-0.868251,0.739891,-13.339640,-3.593964,2.432151,-0.373291,-0.149414,0.960449
60,3132495917,9.644137,-0.923119,0.618640,-13.392352,-3.955014,2.579040,-0.367920,-0.152832,0.958740
61,3132512584,9.596579,-0.635211,0.424798,-18.137501,-4.780155,3.606523,-0.371582,-0.160645,0.958740
62,3132529251,9.683145,-0.745601,0.584732,-21.444616,-3.760105,4.305086,-0.369629,-0.159912,0.959717
63,3132545918,9.737364,-1.171403,0.664706,-19.297094,-2.513147,5.214669,-0.369629,-0.166016,0.958008
64,3132562585,9.676939,-1.503628,0.799539,-10.442980,-1.686635,6.272034,-0.368896,-0.169434,0.962402
65,3132579252,9.922076,-1.227033,0.980150,0.028513,-0.441922,5.709961,-0.364502,-0.167725,0.958740
66,3132595919,9.972587,-1.624761,0.597996,10.271574,0.674440,5.150159,-0.363525,-0.170410,0.963135
67,3132612586,9.951499,-1.531910,0.371359,16.732107,0.685813,4.184114,-0.367188,-0.164307,0.962158
68,3132629253,9.926959,-1.118041,0.369541,12.662165,0.986506,2.677701,-0.366211,-0.157227,0.963135
69,3132645920,9.870969,-0.692022,0.365648,6.832323,1.282934,1.483494,-0.370605,-0.157959,0.962158
70,3132662587,9.864922,-1.034588,0.631018,1.287416,0.841166,1.351499,-0.368896,-0.154541,0.961426
71,3132679254,9.768494,-1.094436,0.855047,0.737242,0.513669,1.292782,-0.367920,-0.155518,0.963135
72,3132695921,9.597827,-0.878461,0.751650,1.653101,0.341449,2.437324,-0.367920,-0.153809,0.963867
73,3132712588,9.722402,-0.645011,0.773924,3.049839,0.711937,3.416664,-0.370605,-0.153809,0.955322
74,3132729255,9.891546,-1.150064,0.728272,4.971726,1.247793,4.157294,-0.369629,-0.152832,0.959473
75,3132745922,9.892098,-1.204015,0.726435,5.943152,0.990987,3.937793,-0.371582,-0.151855,0.959473
76,3132762589,9.885888,-1.066640,0.557774,0.136010,0.821649,2.755690,-0.373291,-0.148438,0.957031
77,3132779256,9.782601,-1.304645,0.626436,-5.021370,0.554509,2.179673,-0.372314,-0.151855,0.958740
78,3132795923,9.725986,-1.159653,0.739196,-6.669241,0.159612,1.992150,-0.370605,-0.156250,0.963135
79,3132812590,9.773519,-0.804624,0.789684,-6.430224,0.305681,2.725762,-0.368896,-0.151123,0.960449
80,3132829257,9.795345,-0.878505,0.710208,-6.995663,0.498225,3.727923,-0.377686,-0.153564,0.962158
81,3132845924,9.867888,-1.283985,0.672428,-5.747465,1.102147,3.331092,-0.375000,-0.156250,0.957764
82,3132862591,9.820613,-1.571863,0.628242,-3.974348,0.792169,2.668901,-0.370605,-0.158203,0.957031
83,3132879258,9.768291,-1.219347,0.629300,-6.384900,0.817167,2.008170,-0.374023,-0.157959,0.959717
84,3132895925,9.747975,-1.080175,0.657223,-10.231892,0.828257,1.657802,-0.375977,-0.160645,0.954346
85,3132912592,9.683340,-1.203087,0.568444,-10.511508,0.199914,1.327654,-0.377686,-0.168457,0.955322
86,3132929259,9.739370,-1.231723,0.774772,-13.857107,-0.167315,1.387870,-0.374023,-0.166016,0.957031
87,3132945926,9.758809,-1.172186,0.759799,-13.395387,-0.472721,1.103697,-0.375977,-0.169434,0.951904
88,3132962593,9.865697,-1.002834,0.193835,-13.317677,-0.904590,1.115786,-0.377686,-0.178223,0.954590
89,3132979260,9.589685,-0.804816,0.371617,-15.878900,-2.134308,-0.711995,-0.372314,-0.178223,0.951904
90,3132995927,9.616713,-0.062297,0.664719,-28.573814,-5.919854,-2.281458,-0.376709,-0.189697,0.952881
91,3133012594,9.414919,0.030127,0.973135,-51.397877,-7.830069,-1.381665,-0.373291,-0.200195,0.948486
92,3133029261,9.520314,-0.381684,1.198073,-70.610550,-9.916415,-1.120870,-0.370605,-0.219482,0.946777
93,3133045928,9.634014,-0.950196,1.363866,-78.484589,-10.506113,-0.789324,-0.365234,-0.238037,0.946045
94,3133062595,9.744646,-1.529336,1.322799,-76.286369,-10.391802,0.297837,-0.364258,-0.258301,0.940918
95,3133079262,9.653167,-2.138565,1.034303,-67.535774,-9.875638,2.099745,-0.362549,-0.277588,0.936768
96,3133095929,9.725253,-2.202220,0.648735,-57.572308,-10.159782,4.649049,-0.355469,-0.292725,0.936035
97,3133112596,9.959756,-2.265414,-0.017173,-45.903297,-9.136096,6.752182,-0.355469,-0.304932,0.930908
98,3133129263,10.186059,-2.122648,-0.263276,-27.021906,-5.956160,6.050882,-0.352783,-0.315430,0.935303
99,3133145930,10.080209,-1.804662,-0.694026,-6.974532,-3.580285,4.265943,-0.356445,-0.315430,0.930908
100,3133162597,9.802719,-1.892590,-0.407464,-3.308418,-1.609195,4.187517,-0.355469,-0.317139,0.929932
101,3133179264,9.734489,-1.702005,-0.484243,1.498721,-1.260209,2.888172,-0.353760,-0.316406,0.929199
102,3133195931,9.619066,-1.657833,-0.003771,-1.695906,-1.242831,2.171746,-0.350342,-0.320801,0.930176
103,3133212598,9.763461,-1.689950,0.483254,0.428392,-1.101564,1.632188,-0.354736,-0.318848,0.934326
104,3133229265,9.749361,-1.538573,0.620745,3.127996,-1.031436,1.759253,-0.356445,-0.319092,0.928223
105,3133245932,9.715246,-1.694671,0.691892,6.846102,-1.139637,1.772623,-0.353760,-0.316406,0.931885
106,3133262599,9.666955,-1.646475,0.543101,8.456682,-1.239245,1.161850,-0.356445,-0.313721,0.931641
107,3133279266,9.726042,-1.531312,0.291831,4.305411,-1.115984,0.383211,-0.354736,-0.313721,0.929932
108,3133295933,9.784886,-1.474149,0.214637,1.317127,-1.284144,-0.518222,-0.354736,-0.310303,0.927490
109,3133312600,9.870348,-1.586491,0.230812,-1.218883,-1.392012,-1.163598,-0.358154,-0.314453,0.932617
110,3133329267,9.871591,-1.628625,0.124893,-0.169121,-1.003147,-1.831231,-0.352783,-0.317383,0.930908
111,3133345934,9.821088,-1.603733,0.091549,2.206976,-0.795210,-2.371313,-0.354736,-0.309326,0.932617
112,3133362601,9.782010,-1.491283,0.133210,2.482415,-0.679697,-2.616529,-0.353760,-0.312012,0.930908
113,3133379268,9.772497,-1.413170,0.215703,1.247435,-0.740681,-2.840269,-0.352783,-0.312012,0.931641
114,3133395935,9.752121,-1.440965,0.235558,0.390459,-0.579065,-2.772434,-0.352051,-0.311035,0.936035
115,3133412602,9.702889,-1.635479,0.299774,1.718619,-0.342967,-3.040266,-0.354736,-0.314453,0.935303
116,3133429269,9.712169,-1.537612,0.383856,3.584582,-0.447915,-3.185388,-0.356445,-0.311035,0.937012
117,3133445936,9.739950,-1.372154,0.386018,3.924884,-0.341302,-3.184824,-0.350342,-0.314697,0.937012
118,3133462603,9.786274,-1.394591,0.309338,4.347340,-0.062290,-3.118103,-0.353760,-0.312744,0.934326
119,3133479270,9.824931,-1.404457,0.224438,4.979090,-0.130151,-3.139631,-0.351074,-0.308594,0.931641
120,3133495937,9.826202,-1.335191,0.203985,5.085421,-0.091937,-3.019046,-0.348389,-0.314697,0.934326
121,3133512604,9.761691,-1.299845,0.171838,3.951189,-0.049125,-2.727600,-0.346680,-0.308594,0.935303
122,3133529271,9.786306,-1.273899,0.258836,2.531527,-0.280523,-2.444066,-0.353760,-0.308350,0.934326
123,3133545938,9.783016,-1.219776,0.274387,1.487361,-0.488985,-2.066241,-0.347656,-0.310303,0.936035
124,3133562605,9.764688,-1.410766,0.325397,2.040365,-0.281740,-1.628327,-0.348389,-0.309326,0.933594
125,3133579272,9.788516,-1.396375,0.319221,3.610194,-0.185231,-1.670230,-0.350342,-0.308594,0.936035
126,3133595939,9.752269,-1.383759,0.257865,3.929276,-0.269945,-1.746658,-0.348389,-0.302490,0.931641
127,3133612606,9.767158,-1.361097,0.284995,4.124433,-0.238480,-1.758209,-0.346680,-0.309326,0.934326
128,3133629273,9.806447,-1.319615,0.275098,4.120501,-0.117370,-1.686020,-0.349365,-0.303223,0.934326
129,3133645940,9.839316,-1.288724,0.248817,4.320050,-0.095023,-1.674648,-0.350342,-0.303223,0.936035
130,3133662607,9.863694,-1.373446,0.255427,4.429671,-0.013946,-2.034839,-0.352051,-0.304199,0.934326
131,3133679274,9.839603,-1.342530,0.166403,4.641835,0.061823,-2.201015,-0.348389,-0.298828,0.936035
132,3133695941,9.849544,-1.306394,0.222481,4.069596,0.144782,-2.447383,-0.349365,-0.299561,0.940430
133,3133712608,9.805245,-1.273920,0.246066,3.452022,0.161789,-2.560758,-0.349365,-0.300537,0.934326
134,3133729275,9.793829,-1.275022,0.301212,2.535651,0.280786,-2.611573,-0.350342,-0.302490,0.935303
135,3133745942,9.810065,-1.194250,0.364846,1.925351,0.274869,-2.566674,-0.343262,-0.303223,0.936035
136,3133762609,9.754292,-1.276465,0.380553,1.574637,0.210479,-2.287112,-0.349365,-0.302490,0.936035
137,3133779276,9.751929,-1.172116,0.384892,1.683235,-0.138731,-2.153272,-0.350342,-0.298828,0.935059
138,3133795943,9.812798,-1.192069,0.354974,1.573433,-0.054376,-1.822766,-0.345947,-0.299805,0.937012
139,3133812610,9.827895,-1.243794,0.291684,2.085853,-0.110007,-1.543178,-0.350342,-0.301514,0.938721
140,3133829277,9.805066,-1.309123,0.276077,2.406371,-0.001345,-1.643452,-0.347656,-0.295410,0.938721
141,3133845944,9.777493,-1.218711,0.287374,2.481672,-0.031811,-1.601088,-0.347656,-0.297852,0.940430
142,3133862611,9.799132,-1.097327,0.320852,1.430655,-0.132187,-1.333794,-0.346680,-0.298096,0.936035
143,3133879278,9.827701,-1.148513,0.343271,0.803182,-0.276745,-1.031859,-0.348389,-0.297119,0.934326
144,3133895945,9.790942,-1.262010,0.338851,0.994637,-0.338139,-0.951819,-0.349365,-0.295410,0.938721
145,3133912612,9.788774,-1.218713,0.343652,1.541072,-0.352892,-0.847307,-0.346680,-0.297852,0.940430
146,3133929279,9.785487,-1.059605,0.330550,0.813402,-0.498513,-0.545512,-0.350342,-0.304199,0.936035
147,3133945946,9.810416,-1.154554,0.299447,0.039245,-0.571522,-0.207386,-0.347656,-0.297119,0.937744
148,3133962613,9.864450,-1.317575,0.310232,0.455336,-0.590936,-0.393616,-0.350342,-0.300537,0.937744
149,3133979280,9.784130,-1.231452,0.285716,0.470832,-0.571944,-0.703530,-0.350342,-0.297852,0.938721
150,3133995947,9.817618,-1.142636,0.322391,-0.594202,-0.477920,-0.596776,-0.345947,-0.297119,0.936035
151,3134012614,9.816389,-1.197697,0.240346,-0.426042,-0.140716,-0.446173,-0.346680,-0.298828,0.937744
152,3134029281,9.762384,-1.305201,0.297740,0.501759,-0.187024,-0.311771,-0.343262,-0.298096,0.937744
153,3134045948,9.778989,-1.097620,0.361597,0.585794,-0.414388,-0.230694,-0.344971,-0.300781,0.935303
154,3134062615,9.799939,-1.072612,0.367380,-0.024972,-0.570958,0.334303,-0.345947,-0.298096,0.936035
155,3134079282,9.778546,-1.256779,0.358464,0.089484,-0.815495,0.601405,-0.346680,-0.301514,0.937012
156,3134095949,9.784018,-1.308115,0.381829,0.674478,-0.733292,0.328348,-0.348389,-0.295410,0.937012
157,3134112616,9.769981,-1.220666,0.350942,1.097293,-0.805007,0.283193,-0.353760,-0.298828,0.936035
158,3134129283,9.803200,-1.203743,0.323064,0.838272,-0.877875,0.347353,-0.345947,-0.296387,0.933350
159,3134145950,9.800137,-1.243281,0.294509,0.946421,-0.895100,0.177490,-0.344971,-0.297119,0.937012
160,3134162617,9.746620,-1.284625,0.313657,1.436277,-0.944251,0.175120,-0.344971,-0.296387,0.937744
161,3134179284,9.829565,-1.097176,0.349930,1.146059,-1.143594,0.233005,-0.345947,-0.298096,0.936035
162,3134195951,9.856754,-1.190732,0.292941,0.872426,-1.112244,0.362196,-0.344971,-0.295410,0.938721
163,3134212618,9.839550,-1.292254,0.254251,1.762442,-1.129379,0.271450,-0.343262,-0.298828,0.939453
164,3134229285,9.735308,-1.263764,0.240040,1.316128,-1.034484,-0.030274,-0.347656,-0.298096,0.932617
165,3134245952,9.785166,-1.205299,0.308166,1.025641,-1.007220,0.009560,-0.343994,-0.295410,0.933350
166,3134262619,9.834815,-1.127680,0.281075,1.250470,-0.950167,0.226653,-0.350342,-0.297119,0.937744
167,3134279286,9.811767,-0.908485,0.232795,0.148150,-0.976856,0.443631,-0.347656,-0.294434,0.937744
168,3134295953,9.814941,-1.016247,0.452719,-7.764094,-2.162020,0.697517,-0.342285,-0.298096,0.937744
169,3134312620,9.843286,-1.165279,0.463337,-11.078535,-2.324687,0.512824,-0.343994,-0.301514,0.939453
170,3134329287,9.717638,-0.862905,-0.025889,-13.532848,-1.972205,0.673992,-0.348389,-0.301514,0.933350
171,3134345954,9.819046,-0.973592,0.130981,-30.050274,-2.333491,1.609923,-0.343994,-0.309570,0.930908
172,3134362621,9.988547,-1.295558,0.346998,-29.347734,-1.365174,0.813775,-0.343994,-0.320068,0.930908
173,3134379288,9.688721,-1.430728,-0.064711,-20.014137,-1.152202,1.522491,-0.345703,-0.324463,0.929199
174,3134395955,9.548047,-0.872444,-0.125612,-20.276285,-2.263167,2.079108,-0.343262,-0.329834,0.927490
175,3134412622,9.485642,-0.238049,-0.084219,-32.118496,-6.144459,2.288727,-0.344971,-0.337646,0.925049
176,3134429289,9.688516,-0.065323,0.429793,-55.625069,-8.770179,2.750021,-0.342285,-0.354248,0.923340
177,3134445956,9.738306,-1.135352,0.506190,-72.648071,-10.809418,3.193215,-0.337891,-0.370361,0.916504
178,3134462623,9.678048,-1.461936,0.286268,-69.583588,-11.831648,2.862378,-0.335938,-0.386963,0.908691
179,3134479290,9.665871,-1.218112,-0.019302,-65.497742,-12.020971,3.883299,-0.330811,-0.406494,0.904297
180,3134495957,9.805563,-1.230774,0.153004,-59.152493,-11.540821,3.634687,-0.331543,-0.421387,0.898438
181,3134512624,9.806804,-1.113836,0.113145,-57.392857,-9.620410,3.804549,-0.327148,-0.435547,0.888916
182,3134529291,9.828355,-1.691150,-0.003611,-57.209126,-8.860229,4.738245,-0.332520,-0.452393,0.883789
183,3134545958,9.844800,-1.830083,0.020537,-52.104084,-7.276063,5.600574,-0.323730,-0.461182,0.882812
184,3134562625,9.989298,-2.036441,-0.281506,-42.971844,-6.535892,6.290259,-0.321045,-0.474609,0.873291
185,3134579292,10.092604,-2.136880,-0.431416,-32.007263,-5.806281,6.691580,-0.322754,-0.483154,0.872559
186,3134595959,10.072236,-1.972258,-0.763505,-21.149340,-6.132984,6.223839,-0.325439,-0.487793,0.866455
187,3134612626,9.945238,-1.385538,-1.012902,-14.157741,-5.779294,5.762639,-0.320068,-0.489502,0.869873
188,3134629293,9.726644,-0.663567,-0.491186,-20.329601,-6.219810,5.251976,-0.322754,-0.497559,0.863037
189,3134645960,9.704503,-0.758064,-0.062639,-34.851967,-5.564396,3.875865,-0.321777,-0.503662,0.859619
190,3134662627,9.577643,-1.010077,0.035260,-47.260223,-6.443797,3.780369,-0.317383,-0.513428,0.856934
191,3134679294,9.544720,-1.425706,0.230182,-54.766880,-7.295382,4.091769,-0.316406,-0.525879,0.846680
192,3134695961,9.795598,-1.875187,0.193955,-54.273335,-8.012147,4.005273,-0.314697,-0.538330,0.837891
193,3134712628,9.836190,-1.843174,-0.261252,-48.854523,-7.228081,5.042755,-0.313721,-0.553223,0.836182
194,3134729295,9.768027,-1.264795,-1.047732,-47.704094,-7.686434,5.500276,-0.317383,-0.566406,0.829346
195,3134745962,9.851650,-1.201697,-0.915467,-60.317654,-10.252438,3.972704,-0.315430,-0.576172,0.818115
196,3134762629,9.944725,-1.216176,-0.588735,-67.165375,-8.699367,-0.051700,-0.313721,-0.594727,0.816406
197,3134779296,9.568454,-0.964235,-0.326815,-75.894081,-7.374957,0.212686,-0.307617,-0.609863,0.800781
198,3134795963,9.600272,-1.333121,0.000537,-84.614883,-7.850979,1.107630,-0.310059,-0.627686,0.786865
199,3134812630,9.699866,-2.376221,-0.251294,-82.876816,-8.246441,2.269885,-0.303955,-0.648926,0.766846
200,3134829297,9.735148,-2.788481,-0.939551,-69.934128,-9.307678,4.683691,-0.306396,-0.665771,0.759277
201,3134845964,9.787697,-2.572297,-1.669553,-54.652073,-10.085059,6.950934,-0.302979,-0.675537,0.751465
202,3134862631,9.919227,-2.553711,-2.247522,-37.140594,-9.022889,7.403268,-0.310059,-0.685303,0.740967
203,3134879298,10.009870,-2.689674,-2.645507,-13.504551,-5.773595,6.664040,-0.305664,-0.688965,0.739258
204,3134895965,9.858632,-1.900776,-2.343366,5.886357,-1.744879,5.607986,-0.302979,-0.688721,0.742676
205,3134912632,9.719785,-2.015504,-1.207746,7.291393,0.771474,5.133894,-0.303711,-0.687012,0.746338
206,3134929299,9.630635,-1.777713,-1.049950,13.658168,1.129374,4.927342,-0.308105,-0.684326,0.742676
207,3134945966,9.794605,-1.747821,-0.601676,8.726987,0.214577,4.941915,-0.307373,-0.678223,0.748779
208,3134962633,9.837778,-1.871029,-0.578104,11.273171,0.058198,4.345561,-0.310059,-0.675537,0.745361
209,3134979300,9.750451,-1.689089,-0.670565,9.318563,-0.974973,3.932928,-0.311768,-0.673584,0.749512
210,3134995967,9.714252,-1.806960,-0.974340,6.006135,-0.209435,3.595993,-0.310059,-0.671875,0.754883
211,3135012634,9.592563,-1.893569,-1.104039,3.803441,-0.205990,3.051721,-0.308350,-0.671875,0.751465
212,3135029301,9.813956,-1.838686,-1.103670,2.876914,-0.514572,2.079898,-0.309082,-0.668457,0.751465
213,3135045968,9.845544,-1.733888,-1.004714,0.084848,-0.736122,1.097536,-0.309082,-0.671143,0.747803
214,3135062635,9.816768,-1.926139,-1.014784,-3.303590,-1.151957,-0.099172,-0.314453,-0.672607,0.753174
215,3135079302,9.698114,-2.016332,-1.149193,-4.466804,-0.979737,-1.061237,-0.308350,-0.674561,0.755859
216,3135095969,9.682131,-1.975703,-1.220016,-2.785112,-0.326997,-1.488354,-0.306396,-0.672852,0.747803
217,3135112636,9.768935,-1.892971,-1.095792,-0.033950,0.406992,-1.787702,-0.313477,-0.671875,0.754883
218,3135129303,9.780720,-1.781984,-0.932916,-1.066769,-0.068373,-2.200144,-0.310059,-0.676270,0.752197
219,3135145970,9.746022,-1.858543,-0.943039,-1.767148,0.139775,-2.857968,-0.310059,-0.671143,0.751465
220,3135162637,9.719423,-1.972413,-0.976807,-3.002551,-0.274466,-3.591823,-0.308350,-0.676270,0.752197
221,3135179304,9.711385,-1.903717,-1.031492,-2.029807,-0.622658,-4.088044,-0.310791,-0.681641,0.748047
222,3135195971,9.753160,-1.855716,-1.076776,0.486942,0.128147,-4.339355,-0.309082,-0.673828,0.748779
223,3135212638,9.778687,-1.633300,-1.027775,1.845261,0.094107,-4.237711,-0.308350,-0.681641,0.750488
224,3135229305,9.756421,-1.653244,-1.086641,0.333330,0.444118,-3.924519,-0.308350,-0.674561,0.747070
225,3135245972,9.776997,-1.652433,-1.050319,1.765221,0.703946,-3.436956,-0.302002,-0.679199,0.747070
226,3135262639,9.730352,-1.613918,-1.037232,1.941167,1.084051,-3.102890,-0.306396,-0.677246,0.747803
227,3135279306,9.711726,-1.633697,-0.982951,2.543322,0.616402,-2.697965,-0.305664,-0.677490,0.744385
228,3135295973,9.758088,-1.597828,-0.937640,1.853854,0.143617,-2.596359,-0.300293,-0.677490,0.743652
229,3135312640,9.783772,-1.630539,-0.962687,0.392841,-0.018992,-2.548092,-0.299316,-0.678223,0.749756
230,3135329307,9.727414,-1.748210,-0.933327,0.162276,-0.625373,-2.461867,-0.301270,-0.682617,0.747070
231,3135345974,9.787960,-1.654814,-0.947000,0.677949,-0.467099,-2.671021,-0.304688,-0.675537,0.749756
232,3135362641,9.731706,-1.746269,-0.973229,0.763316,0.246157,-2.917696,-0.304688,-0.678223,0.745361
233,3135379308,9.742856,-1.710933,-1.021631,1.526562,0.202961,-3.171339,-0.302002,-0.678223,0.745361
234,3135395975,9.782097,-1.599221,-1.027517,1.154371,0.395134,-3.294933,-0.302002,-0.677246,0.748779
235,3135412642,9.760190,-1.647058,-0.993845,1.204674,0.528345,-3.155087,-0.299316,-0.684326,0.748779
236,3135429309,9.784636,-1.635804,-1.007867,1.564430,0.799904,-3.211167,-0.300293,-0.676514,0.747803
237,3135445976,9.816775,-1.630694,-1.048229,0.588176,-0.137182,-3.383681,-0.300293,-0.678223,0.753174
238,3135462643,9.738574,-1.673537,-1.022933,0.963031,0.584770,-3.363459,-0.297607,-0.675781,0.745361
239,3135479310,9.785440,-1.426527,-0.929079,2.072906,0.343383,-3.179984,-0.302002,-0.679199,0.748779
240,3135495977,9.811222,-1.309907,-0.906916,-0.035947,-0.071728,-2.581376,-0.297607,-0.680176,0.747070
241,3135512644,9.799991,-1.560885,-0.951836,-0.807530,0.442197,-2.185199,-0.294922,-0.678467,0.747070
242,3135529311,9.773647,-1.625133,-0.929007,0.353026,0.512862,-2.172662,-0.299316,-0.679932,0.748047
243,3135545978,9.755057,-1.537481,-0.944434,1.758203,0.694085,-1.921337,-0.297607,-0.678223,0.752197
244,3135562645,9.781065,-1.429613,-0.926619,0.988938,0.295948,-1.511111,-0.300293,-0.681885,0.748779
245,3135579312,9.802297,-1.500422,-1.029175,-0.307570,0.261615,-1.208676,-0.294922,-0.680908,0.749756
246,3135595979,9.750983,-1.626690,-1.016466,-0.189995,0.461278,-1.221905,-0.295898,-0.679199,0.748047
247,3135612646,9.775309,-1.616277,-1.025784,1.165346,0.627274,-1.389438,-0.296875,-0.681885,0.745361
248,3135629313,9.843631,-1.553181,-0.949905,0.749063,0.937380,-1.759221,-0.294922,-0.680176,0.749756
249,3135645980,9.830234,-1.516407,-0.895610,0.231097,0.499147,-1.993424,-0.294922,-0.679199,0.750488
250,3135662647,9.812344,-1.573612,-0.939037,0.740201,0.475020,-2.033687,-0.301270,-0.674805,0.747803
251,3135679314,9.789129,-1.550499,-0.974462,1.998412,0.512171,-1.925460,-0.299316,-0.680908,0.748779
252,3135695981,9.803419,-1.485449,-0.922915,2.551851,0.565240,-1.849634,-0.302002,-0.684326,0.754150
253,3135712648,9.808039,-1.408513,-0.905961,1.670915,0.652336,-1.848468,-0.297607,-0.680908,0.748779
254,3135729315,9.737229,-1.476356,-0.879092,-0.490957,0.744599,-1.673047,-0.294189,-0.681885,0.747070
255,3135745982,9.670185,-1.582357,-0.859928,0.189220,0.389448,-1.583672,-0.294189,-0.680176,0.747070
256,3135762649,9.768215,-1.524236,-0.855641,1.943395,0.355575,-1.626240,-0.294922,-0.683594,0.749756
257,3135779316,9.871156,-1.385809,-0.852031,1.121881,0.234491,-1.489993,-0.294189,-0.677490,0.744385
258,3135795983,9.815626,-1.466441,-0.845801,-0.319442,-0.112914,-1.485370,-0.301270,-0.678223,0.748779
259,3135812650,9.775935,-1.466494,-0.932694,-0.323501,0.208084,-1.542461,-0.294922,-0.684326,0.751465
260,3135829317,9.749389,-1.472578,-0.985167,-0.054325,0.172841,-1.478788,-0.296875,-0.683594,0.748779
261,3135845984,9.748575,-1.498390,-1.035331,0.495215,0.121961,-1.288434,-0.294189,-0.685303,0.745361
262,3135862651,9.823382,-1.452125,-0.949594,0.822738,0.054267,-1.307964,-0.293213,-0.679199,0.748047
263,3135879318,9.878147,-1.389286,-0.903781,0.439584,0.411423,-1.104061,-0.291504,-0.675781,0.741699
264,3135895985,9.805429,-1.429266,-0.890925,0.759205,0.301532,-0.956404,-0.291504,-0.681885,0.745361
265,3135912652,9.817627,-1.458533,-0.891371,1.084486,0.543623,-0.924964,-0.293213,-0.680908,0.747070
266,3135929319,9.785039,-1.483113,-0.866319,0.358405,0.471997,-1.046804,-0.296875,-0.681885,0.746094
267,3135945986,9.764240,-1.392077,-0.863379,0.608833,0.290557,-0.875019,-0.294189,-0.685303,0.747070
268,3135962653,9.817542,-1.392955,-0.851048,0.665565,0.010380,-0.682514,-0.294922,-0.680908,0.748047
269,3135979320,9.793682,-1.416323,-0.872823,1.209745,0.324775,-0.387853,-0.298584,-0.682617,0.748779
270,3135995987,9.793366,-1.396613,-0.890663,1.031596,0.155949,-0.218912,-0.300293,-0.680908,0.748047
271,3136012654,9.809623,-1.376647,-0.885583,0.262754,-0.172860,-0.080846,-0.293213,-0.681152,0.742676
272,3136029321,9.742951,-1.431617,-0.936235,-0.987959,-0.328521,0.050399,-0.294922,-0.676514,0.750488
273,3136045988,9.745962,-1.476344,-0.948246,0.233581,-0.186204,0.211516,-0.293213,-0.684570,0.743652
274,3136062655,9.877903,-1.422075,-0.867101,0.705355,-0.212918,0.140018,-0.296875,-0.681885,0.748047
275,3136079322,9.859178,-1.424425,-0.815808,0.311085,-0.084035,0.245581,-0.294189,-0.680908,0.751465
276,3136095989,9.817515,-1.462332,-0.833389,0.691549,-0.270009,0.225808,-0.292480,-0.679199,0.745361
277,3136112656,9.779611,-1.454855,-0.878610,-0.366390,-0.043106,0.075999,-0.294922,-0.684326,0.750488
278,3136129323,9.793605,-1.443547,-0.895647,0.337172,-0.376110,0.086667,-0.297607,-0.682617,0.746094
279,3136145990,9.772566,-1.405020,-0.917115,0.408555,-0.333938,0.249346,-0.296875,-0.680176,0.747070
280,3136162657,9.775681,-1.456546,-0.938504,0.331127,-0.356836,0.303555,-0.295898,-0.680176,0.747070
281,3136179324,9.789889,-1.440489,-0.935811,0.332639,-0.236277,0.328912,-0.298584,-0.684326,0.749756
282,3136195991,9.828712,-1.416622,-0.828686,-0.426733,-0.362240,0.284832,-0.297607,-0.679932,0.748779
283,3136212658,9.788305,-1.435232,-0.820395,-0.652176,-0.541862,0.282425,-0.295898,-0.681885,0.743652
284,3136229325,9.793971,-1.480859,-0.848793,-0.481378,-0.669977,0.324046,-0.297607,-0.684570,0.746094
285,3136245992,9.761675,-1.459132,-0.855570,-0.022270,-1.183192,0.216997,-0.293213,-0.683594,0.744385
286,3136262659,9.802800,-1.487725,-0.890581,0.045661,-0.960719,0.206458,-0.293213,-0.684570,0.747070
287,3136279326,9.780416,-1.508616,-0.926638,0.264842,-0.521539,0.035890,-0.295898,-0.683594,0.746094
288,3136295993,9.793115,-1.448110,-0.904685,-0.243205,-0.799257,-0.098583,-0.293213,-0.682861,0.747070
289,3136312660,9.808969,-1.447814,-0.822684,-0.581152,-1.062761,-0.328880,-0.299316,-0.680908,0.749756
290,3136329327,9.797355,-1.463519,-0.836111,-0.179430,-1.000714,-0.436530,-0.294189,-0.682861,0.743652
291,3136345994,9.780609,-1.488424,-0.860408,0.391791,-1.046829,-0.474411,-0.296875,-0.681885,0.748047
292,3136362661,9.791094,-1.455303,-0.870109,0.763585,-0.797528,-0.627076,-0.296875,-0.681885,0.745361
293,3136379328,9.789795,-1.493103,-0.902934,0.498647,-0.942163,-0.786937,-0.296875,-0.684570,0.747070
294,3136395995,9.822233,-1.538430,-0.949427,-0.383870,-0.272173,-1.221303,-0.294922,-0.680908,0.748047
295,3136412662,9.849794,-1.463988,-0.930203,0.028180,-0.539941,-1.414243,-0.293213,-0.681885,0.748779
296,3136429329,9.790794,-1.396266,-0.924384,0.400423,-0.877606,-1.453137,-0.294189,-0.680176,0.748047
297,3136445996,9.780970,-1.380876,-0.901403,0.214590,-1.446951,-1.380934,-0.294189,-0.682861,0.743652
298,3136462663,9.816170,-1.398812,-0.927408,0.791682,-0.967866,-1.219165,-0.289795,-0.681152,0.744385
299,3136479330,9.821454,-1.426871,-0.963235,0.842062,-0.450246,-1.196151,-0.294189,-0.682617,0.750488
300,3136495997,9.805326,-1.370331,-0.947566,0.772281,-0.403362,-1.181757,-0.290527,-0.681885,0.748047
301,3136512664,9.802946,-1.353225,-0.916817,0.492282,-0.316240,-0.714505,-0.292480,-0.681152,0.745361
302,3136529331,9.770828,-1.393165,-0.920889,1.579350,-0.063878,-0.469468,-0.291504,-0.677490,0.745361
303,3136545998,9.771662,-1.388075,-0.888137,1.174515,-0.823295,-0.427745,-0.288818,-0.681885,0.748047
304,3136562665,9.823469,-1.441519,-0.857837,1.031622,-0.845283,-0.617996,-0.290527,-0.682861,0.748779
305,3136579332,9.814298,-1.460568,-0.850983,0.492744,-1.009627,-0.882473,-0.290527,-0.681885,0.746094
306,3136595999,9.812954,-1.430415,-0.918897,0.284973,-0.772172,-1.201453,-0.291504,-0.684570,0.749756
307,3136612666,9.800729,-1.433631,-0.896033,0.242533,-0.433687,-1.398684,-0.289795,-0.679199,0.748779
308,3136629333,9.805934,-1.402995,-0.896413,0.331076,-0.676406,-1.491274,-0.293213,-0.685303,0.748779
309,3136646000,9.802265,-1.378123,-0.905874,0.451955,-0.914463,-1.372623,-0.287109,-0.684570,0.749756
310,3136662667,9.823024,-1.387050,-0.908164,1.396142,-0.966982,-1.446708,-0.289795,-0.681152,0.744385
311,3136679334,9.800042,-1.357645,-0.907758,1.667060,-1.233636,-1.234314,-0.290527,-0.681885,0.752441
312,3136696001,9.776965,-1.312818,-0.932115,0.431222,-1.075849,-1.150971,-0.288818,-0.681885,0.745361
313,3136712668,9.824212,-1.350096,-0.951406,-0.400455,-1.269519,-0.919534,-0.289795,-0.682861,0.748047
314,3136729335,9.801371,-1.348145,-0.970455,-0.079720,-0.846295,-0.797938,-0.288086,-0.681152,0.748047
315,3136746002,9.837480,-1.296029,-0.944594,0.344958,-1.015979,-0.427835,-0.282715,-0.685547,0.748779
316,3136762669,9.839326,-1.282274,-0.905830,0.398399,-0.917575,-0.083088,-0.289795,-0.683594,0.747070
317,3136779336,9.845842,-1.255717,-0.881242,0.223913,-0.730833,0.188260,-0.283447,-0.683838,0.744385
318,3136796003,9.800699,-1.283418,-0.860810,-0.167238,-0.821258,0.619846,-0.283447,-0.684814,0.744385
319,3136812670,9.763583,-1.331800,-0.855994,-0.533628,-0.868860,0.616581,-0.287109,-0.686279,0.748047
320,3136829337,9.781382,-1.413233,-0.903134,0.386899,-0.922493,0.836082,-0.286133,-0.682861,0.753174
321,3136846004,9.812364,-1.396675,-0.957514,0.591007,-1.020692,0.692138,-0.285400,-0.684814,0.743652
322,3136862671,9.829512,-1.398502,-0.948554,0.098974,-1.164392,0.585833,-0.287109,-0.681152,0.747070
323,3136879338,9.828117,-1.387427,-0.982196,-0.186102,-1.145694,0.491002,-0.287109,-0.684570,0.748779
324,3136896005,9.878702,-1.417576,-0.953645,-0.195681,-1.182333,0.150135,-0.287109,-0.682861,0.750488
325,3136912672,9.814328,-1.356313,-0.957164,-0.124836,-0.981991,0.262383,-0.289795,-0.681885,0.746094
326,3136929339,9.817294,-1.326732,-0.919751,-0.461592,-0.794711,0.483049,-0.286133,-0.682861,0.753174
327,3136946006,9.750039,-1.259779,-0.956474,-0.379580,-0.904320,0.835800,-0.287109,-0.683594,0.748779
328,3136962673,9.762697,-1.331747,-0.968397,-1.478570,-0.987408,1.050383,-0.288086,-0.683838,0.745361
329,3136979340,9.816881,-1.355473,-0.928634,-1.180989,-1.067704,1.262380,-0.288818,-0.683838,0.744385
330,3136996007,9.804590,-1.406034,-0.931869,-0.315177,-1.068357,1.421037,-0.287109,-0.682861,0.749756
331,3137012674,9.796319,-1.389390,-0.932969,0.282911,-0.886468,1.385231,-0.289795,-0.682861,0.750488
332,3137029341,9.823454,-1.461683,-0.941622,-0.200227,-0.798297,1.229250,-0.291504,-0.685303,0.750488
333,3137046008,9.834914,-1.436610,-0.967375,1.255106,-0.368746,1.187962,-0.287109,-0.685547,0.748779
334,3137062675,9.816518,-1.445569,-0.973660,1.620432,-0.420561,0.861169,-0.290527,-0.683594,0.747070
335,3137079342,9.838815,-1.449551,-0.990259,1.315193,-0.433213,0.441096,-0.288086,-0.681152,0.745361
336,3137096009,9.826263,-1.352278,-0.947716,0.241406,-0.543284,0.471203,-0.292480,-0.682861,0.747070
337,3137112676,9.791471,-1.372425,-0.957258,-0.314767,-0.678045,0.431068,-0.287109,-0.683594,0.748779
338,3137129343,9.763405,-1.386826,-0.986759,-0.395255,-0.757380,0.538193,-0.287109,-0.681885,0.748047
339,3137146010,9.776901,-1.420621,-0.973410,-0.188228,-0.609595,0.584655,-0.288086,-0.681152,0.746094
340,3137162677,9.834956,-1.415620,-0.960652,0.377896,-0.313730,0.609166,-0.290527,-0.684570,0.747070
341,3137179344,9.809047,-1.369805,-0.949909,0.080417,-0.302806,0.629643,-0.286133,-0.683838,0.748779
342,3137196011,9.776292,-1.398502,-0.903005,-0.245139,-0.612720,0.544737,-0.290527,-0.685303,0.751465
343,3137212678,9.799504,-1.449509,-0.880640,0.402177,-0.739759,0.621358,-0.288086,-0.683838,0.746338
344,3137229345,9.793754,-1.414119,-0.894510,0.483702,-0.734316,0.551666,-0.286133,-0.683838,0.745361
345,3137246012,9.801643,-1.411124,-0.904227,0.139865,-1.025584,0.561616,-0.290527,-0.686279,0.751465
346,3137262679,9.792110,-1.402995,-0.928509,-0.054030,-0.883971,0.569786,-0.287842,-0.684570,0.742676
347,3137279346,9.792721,-1.429176,-0.922891,0.377935,-1.029080,0.579776,-0.285400,-0.683838,0.748779
348,3137296013,9.825378,-1.436859,-1.008514,0.077792,-0.896252,0.410027,-0.287109,-0.682861,0.748779
349,3137312680,9.805420,-1.440296,-0.988296,0.155424,-0.771006,0.273230,-0.284424,-0.681152,0.745361
350,3137329347,9.776089,-1.427407,-0.995402,0.292170,-0.669939,0.238409,-0.282715,-0.683838,0.750488
351,3137346014,9.816559,-1.446458,-0.979823,-0.187062,-0.892142,0.088998,-0.288086,-0.683838,0.745361
352,3137362681,9.760522,-1.459037,-0.939253,-0.511229,-0.934505,-0.039380,-0.288818,-0.680176,0.746094
353,3137379348,9.822164,-1.455899,-0.955225,0.086296,-0.924657,-0.233216,-0.281738,-0.689209,0.743652
354,3137396015,9.844632,-1.430328,-0.958973,0.219430,-0.977099,-0.418358,-0.289795,-0.680908,0.750488
355,3137412682,9.805716,-1.431721,-0.976403,0.740418,-0.862111,-0.421239,-0.288086,-0.687256,0.748779
356,3137429349,9.778141,-1.389861,-0.941018,0.363041,-0.902732,-0.366787,-0.284424,-0.684570,0.748047
357,3137446016,9.789477,-1.356149,-0.941406,0.238640,-0.822462,-0.274683,-0.288086,-0.681885,0.747070
358,3137462683,9.786181,-1.360039,-0.983643,0.184815,-0.696281,-0.048971,-0.286133,-0.684570,0.748047
359,3137479350,9.786986,-1.348592,-0.984404,-0.859255,-0.939102,0.181421,-0.284424,-0.683838,0.745361
360,3137496017,9.804458,-1.368415,-0.997713,-1.023176,-0.888825,0.440737,-0.289795,-0.681885,0.747070
361,3137512684,9.797656,-1.412882,-1.001289,-0.533448,-0.771032,0.538257,-0.285400,-0.687256,0.748779
362,3137529351,9.788124,-1.467306,-0.985292,0.647675,-0.645581,0.591941,-0.286133,-0.685547,0.746338
363,3137546018,9.775069,-1.491271,-0.988435,1.242671,-0.805046,0.213539,-0.287109,-0.684570,0.748779
364,3137562685,9.839263,-1.499946,-0.965566,1.651859,-0.589092,0.102150,-0.287109,-0.684570,0.747070
365,3137579352,9.809845,-1.453933,-0.960676,1.290835,-0.552107,-0.320274,-0.288818,-0.683594,0.751465
366,3137596019,9.848760,-1.454120,-0.988860,1.305627,-0.590411,-0.664918,-0.288818,-0.684570,0.748779
367,3137612686,9.841352,-1.351230,-1.021694,0.657741,-0.499525,-0.876518,-0.284424,-0.684570,0.749756
368,3137629353,9.802433,-1.364411,-0.995312,-0.205465,-0.515148,-0.716541,-0.286133,-0.683838,0.746338
369,3137646020,9.785097,-1.367320,-1.022419,0.467848,-0.199100,-0.540825,-0.285400,-0.679443,0.745361
370,3137662687,9.768085,-1.350537,-1.005601,0.119195,-0.067605,-0.290883,-0.287109,-0.680176,0.746094
371,3137679354,9.802792,-1.343989,-0.975318,0.273985,-0.110929,0.019370,-0.286133,-0.681885,0.749756
372,3137696021,9.838737,-1.315401,-0.917665,0.187965,-0.251696,0.183457,-0.286133,-0.681152,0.750488
373,3137712688,9.804591,-1.372910,-0.932725,-0.211561,-0.550468,0.431427,-0.288818,-0.686279,0.743652
374,3137729355,9.782499,-1.425344,-0.952747,0.121372,-1.077770,0.519534,-0.282715,-0.681152,0.749756
375,3137746022,9.822206,-1.431880,-0.937781,0.707109,-1.080587,0.444912,-0.292480,-0.682617,0.752441
376,3137762689,9.809546,-1.424392,-0.938287,0.906350,-0.934134,0.400295,-0.289795,-0.684570,0.750488
377,3137779356,9.810689,-1.425489,-0.978881,0.785330,-0.604729,0.245312,-0.283447,-0.682861,0.743652
378,3137796023,9.830536,-1.409773,-0.974781,0.454453,-0.225622,0.154541,-0.286133,-0.684570,0.748779
379,3137812690,9.795436,-1.422694,-0.997673,0.220199,-0.098724,0.138174,-0.286133,-0.687256,0.750732
380,3137829357,9.780687,-1.418950,-1.016376,0.468770,-0.067272,0.167398,-0.286133,-0.683594,0.750488
381,3137846024,9.817558,-1.454186,-1.022309,0.555059,-0.293816,0.105198,-0.288818,-0.685547,0.748779
382,3137862691,9.793625,-1.431056,-1.016077,0.829435,-0.320902,0.035762,-0.285400,-0.681152,0.747070
383,3137879358,9.827701,-1.411730,-0.982266,0.188144,-0.421047,-0.109674,-0.288086,-0.685547,0.745361
384,3137896025,9.870032,-1.393684,-0.976716,0.119592,-0.057321,-0.224777,-0.286133,-0.682861,0.748047
385,3137912692,9.803801,-1.368003,-0.934520,-0.572943,0.252445,-0.210677,-0.285400,-0.684570,0.748047
386,3137929359,9.779547,-1.392800,-0.938297,-0.170798,0.335264,-0.049215,-0.288086,-0.686279,0.750488
387,3137946026,9.734969,-1.354928,-0.977896,0.542496,-0.001357,0.177861,-0.288818,-0.682861,0.748047
388,3137962693,9.801641,-1.358863,-0.963597,0.758360,-0.255090,0.414266,-0.288086,-0.681152,0.743652
389,3137979360,9.824719,-1.379170,-0.989504,0.589764,-0.421495,0.475237,-0.283447,-0.684570,0.746338
390,3137996027,9.804816,-1.397875,-0.946919,0.186454,-0.167315,0.524426,-0.287109,-0.687988,0.748047
391,3138012694,9.794003,-1.401476,-0.987473,0.093121,-0.162064,0.602417,-0.290527,-0.685547,0.746338
392,3138029361,9.784685,-1.435436,-0.927847,-0.001998,-0.313525,0.553958,-0.282715,-0.684570,0.750488
393,3138046028,9.818492,-1.479384,-0.948210,-0.001229,-0.415451,0.238256,-0.289795,-0.686279,0.749756
394,3138062695,9.824375,-1.488625,-0.959275,0.440058,-0.219898,0.002696,-0.283447,-0.687256,0.746338
395,3138079362,9.822204,-1.459815,-0.947013,1.028010,0.014285,-0.259162,-0.288086,-0.685303,0.750488
396,3138096029,9.795734,-1.382481,-0.996428,0.784293,0.053908,-0.414247,-0.291504,-0.682861,0.742676
397,3138112696,9.781474,-1.384600,-0.991782,-0.109725,-0.014958,-0.405551,-0.291504,-0.682861,0.746094
398,3138129363,9.793891,-1.375842,-0.974713,0.181114,-0.208615,-0.267640,-0.288086,-0.688232,0.745361
399,3138146030,9.799172,-1.361505,-0.976044,-0.087980,-0.411186,-0.214468,-0.287109,-0.685547,0.740234
400,3138162697,9.818703,-1.400525,-0.960208,0.377000,-0.329610,-0.078119,-0.289795,-0.686279,0.743652
401,3138179364,9.800950,-1.359753,-0.922375,0.403035,0.254456,0.122051,-0.287109,-0.686279,0.747070
402,3138196031,9.773099,-1.373739,-0.916496,-0.175485,0.265520,0.195572,-0.291504,-0.683594,0.748779
403,3138212698,9.801165,-1.436062,-0.921024,0.605529,-0.024204,0.358520,-0.289795,-0.685303,0.748779
404,3138229365,9.816364,-1.354728,-0.925864,0.892109,-0.272289,0.413408,-0.291504,-0.684570,0.751465
405,3138246032,9.801296,-1.378232,-0.936943,0.615813,-0.593574,0.464646,-0.285400,-0.681885,0.748047
406,3138262699,9.811622,-1.379613,-0.959809,0.638710,-0.721036,0.480155,-0.287109,-0.684570,0.750488
407,3138279366,9.804026,-1.427810,-0.915904,0.427380,-0.591205,0.503014,-0.281006,-0.683105,0.743652
408,3138296033,9.808086,-1.418146,-0.968352,0.437715,-0.583701,0.464108,-0.287109,-0.690674,0.748047
409,3138312700,9.784341,-1.396538,-0.938371,0.119963,-0.479239,0.359660,-0.288086,-0.686279,0.748047
410,3138329367,9.806192,-1.432257,-0.901755,0.245453,-0.560649,0.393930,-0.289795,-0.684570,0.746338
411,3138346034,9.796741,-1.443289,-0.949930,0.442837,-0.569486,0.200848,-0.293213,-0.682861,0.747070
412,3138362701,9.806028,-1.444334,-0.949494,0.313647,-0.503661,0.027745,-0.287109,-0.686279,0.750488
413,3138379368,9.852762,-1.422611,-0.964593,0.483869,-0.558639,-0.134377,-0.288818,-0.685547,0.745361
414,3138396035,9.847741,-1.357915,-0.965690,0.399539,-0.586134,0.014337,-0.286133,-0.685547,0.747070
415,3138412702,9.749603,-1.313655,-0.947066,-0.057385,-0.525432,0.318091,-0.285400,-0.682129,0.744385
416,3138429369,9.790104,-1.332942,-0.918635,-0.738709,-1.223941,0.481013,-0.287109,-0.681152,0.751465
417,3138446036,9.762823,-1.360371,-0.893165,-0.833283,-1.536070,0.553804,-0.289795,-0.684570,0.749756
418,3138462703,9.788655,-1.422573,-0.914144,0.061707,-1.574707,0.758386,-0.287109,-0.685547,0.748047
419,3138479370,9.822817,-1.417514,-0.910551,0.465043,-1.634577,0.857199,-0.287109,-0.686279,0.746338
420,3138496037,9.794797,-1.396800,-0.975710,0.560476,-1.454212,1.082322,-0.288086,-0.684570,0.748779
421,3138512704,9.796556,-1.427173,-1.005602,0.276150,-1.207293,0.938891,-0.290527,-0.686279,0.745361
422,3138529371,9.819250,-1.492199,-1.016538,0.021918,-1.072493,0.675682,-0.290527,-0.687012,0.750488
423,3138546038,9.807551,-1.538371,-1.004166,-0.194042,-1.056805,0.245594,-0.284424,-0.688232,0.747070
424,3138562705,9.822582,-1.498417,-1.024991,0.085566,-0.781584,-0.220269,-0.288086,-0.682861,0.750488
425,3138579372,9.800801,-1.449589,-1.013906,0.030012,-0.949629,-0.490611,-0.284424,-0.683838,0.745361
426,3138596039,9.819600,-1.444350,-0.990126,0.886744,-0.856553,-0.498961,-0.287109,-0.684570,0.748047
427,3138612706,9.819436,-1.371226,-0.980967,1.576712,-0.831055,-0.344504,-0.290527,-0.684570,0.749756
428,3138629373,9.778655,-1.362386,-0.977099,1.536986,-0.724993,-0.244806,-0.288086,-0.682861,0.746094
429,3138646040,9.776763,-1.360280,-0.966484,0.982369,-0.752591,0.040679,-0.283691,-0.682129,0.748047
430,3138662707,9.786457,-1.356929,-0.960180,0.685556,-0.934940,0.255583,-0.287109,-0.681885,0.747070
431,3138679374,9.798575,-1.419160,-0.963736,0.488876,-0.874558,0.426560,-0.286133,-0.681885,0.749756
432,3138696041,9.827771,-1.396131,-0.970765,0.694636,-1.020192,0.422706,-0.283691,-0.681152,0.752441
433,3138712708,9.797273,-1.397668,-0.990568,-0.012806,-1.030911,0.433834,-0.288086,-0.684570,0.748047
434,3138729375,9.804958,-1.465157,-0.975125,0.090394,-1.102076,0.376308,-0.290527,-0.680176,0.751465
435,3138746042,9.786970,-1.408212,-0.991338,0.570632,-1.068408,0.324519,-0.286133,-0.680176,0.748779
436,3138762709,9.791554,-1.443133,-0.970838,0.055868,-1.023612,0.228843,-0.286133,-0.684570,0.748779
437,3138779376,9.800180,-1.444643,-0.979663,-0.527634,-1.229282,0.135088,-0.285400,-0.680176,0.748779
438,3138796043,9.785447,-1.415247,-1.022416,-0.175780,-1.212787,0.248578,-0.288086,-0.684570,0.747070
439,3138812710,9.783994,-1.426485,-1.016196,0.465620,-1.178159,0.185673,-0.281738,-0.687256,0.748047
440,3138829377,9.767910,-1.432902,-1.004235,0.356638,-0.911838,0.104199,-0.284424,-0.687988,0.753174
441,3138846044,9.831863,-1.450373,-0.998829,0.553382,-1.129815,0.058339,-0.283691,-0.683838,0.748779
442,3138862711,9.781711,-1.427195,-0.993602,0.389371,-0.806096,-0.138129,-0.286133,-0.681152,0.747070
443,3138879378,9.769988,-1.447200,-1.010822,0.025978,-0.922313,-0.303587,-0.281738,-0.683838,0.748779
444,3138896045,9.842242,-1.436454,-1.000182,-0.072932,-1.227040,-0.429205,-0.288086,-0.685303,0.752441
445,3138912712,9.870039,-1.391677,-1.011429,-0.525470,-0.954188,-0.461169,-0.283691,-0.687256,0.748047
446,3138929379,9.807589,-1.355289,-1.005883,-0.397483,-0.723917,-0.341750,-0.286133,-0.683838,0.748779
447,3138946046,9.712934,-1.321753,-0.997574,-0.661333,-1.032038,-0.067169,-0.281006,-0.682861,0.750488
448,3138962713,9.776259,-1.384616,-1.010424,-0.560995,-1.249042,0.174916,-0.283691,-0.680176,0.749756
449,3138979380,9.809535,-1.455924,-1.049453,0.292747,-1.411849,0.300507,-0.284424,-0.686279,0.748779
450,3138996047,9.824478,-1.436114,-1.071912,1.281077,-1.180656,0.346418,-0.286133,-0.690674,0.752441
451,3139012714,9.832725,-1.411915,-1.052636,1.677446,-0.746226,0.375181,-0.283691,-0.686279,0.750488
452,3139029381,9.820036,-1.398122,-1.019180,1.060475,-0.677699,0.494869,-0.282715,-0.685547,0.748779
453,3139046048,9.788034,-1.428657,-1.017367,1.333314,-0.643737,0.438573,-0.283691,-0.685547,0.748779
454,3139062715,9.803941,-1.506597,-0.995801,1.377137,-0.385638,0.291441,-0.282715,-0.685547,0.748779
455,3139079382,9.809863,-1.512947,-0.987527,1.248818,-0.721228,-0.113554,-0.281738,-0.682861,0.748779
456,3139096049,9.784561,-1.442231,-1.032763,1.131806,-0.815829,-0.466881,-0.283447,-0.683838,0.745361
457,3139112716,9.785515,-1.479820,-1.005265,1.361782,-0.885418,-0.767779,-0.284424,-0.683838,0.750488
458,3139129383,9.789543,-1.350476,-1.014685,1.354637,-0.992620,-0.976740,-0.277344,-0.683105,0.748047
459,3139146050,9.773920,-1.408427,-1.015483,-0.189662,-0.884086,-1.061864,-0.284424,-0.682861,0.753174
460,3139162717,9.817384,-1.458579,-1.057306,0.042306,-0.860971,-1.152648,-0.281738,-0.689209,0.744629
461,3139179384,9.799772,-1.474710,-1.044475,0.376449,-0.808004,-1.238912,-0.282715,-0.681152,0.752441
462,3139196051,9.803768,-1.420490,-1.057251,0.606310,-0.683244,-1.349776,-0.283691,-0.683838,0.751465
463,3139212718,9.802751,-1.382509,-1.018252,0.335456,-0.637948,-1.528079,-0.279053,-0.686523,0.749756
464,3139229385,9.772511,-1.359797,-1.022736,0.036415,-0.803752,-1.507000,-0.282715,-0.681885,0.752441
465,3139246052,9.809609,-1.424269,-1.034446,0.315888,-0.933928,-1.546354,-0.277344,-0.683105,0.748047
466,3139262719,9.789326,-1.406453,-1.059825,0.616658,-0.698074,-1.567459,-0.277344,-0.684814,0.750488
467,3139279386,9.831596,-1.389525,-1.038282,0.267121,-0.767318,-1.785141,-0.279297,-0.681885,0.753174
468,3139296053,9.831346,-1.391673,-1.029360,0.276688,-0.210575,-1.664249,-0.282715,-0.684570,0.748779
469,3139312720,9.801975,-1.349569,-1.056053,1.244988,-0.105166,-1.642286,-0.277344,-0.684814,0.750488
470,3139329387,9.789389,-1.333539,-1.077609,1.051920,-0.479764,-1.667848,-0.280029,-0.688232,0.748779
471,3139346054,9.810513,-1.356397,-1.090600,0.832227,-0.400275,-1.694869,-0.276611,-0.683838,0.749756
472,3139362721,9.828000,-1.338002,-1.009750,0.916659,-0.435902,-1.751845,-0.279297,-0.687256,0.754883
473,3139379388,9.813865,-1.355300,-1.004999,0.173763,-0.414695,-1.728448,-0.273926,-0.684814,0.751465
474,3139396055,9.856104,-1.404731,-1.032842,1.030854,-0.400647,-1.894046,-0.274658,-0.682861,0.751465
475,3139412722,9.849589,-1.316027,-1.012169,1.477706,-0.379811,-1.894046,-0.274658,-0.682861,0.753174
476,3139429389,9.813330,-1.243520,-1.011083,1.332584,-0.289423,-1.754009,-0.269531,-0.684082,0.748047
477,3139446056,9.795072,-1.222398,-0.989493,1.175668,-0.297094,-1.409454,-0.273926,-0.682861,0.753174
478,3139462723,9.779133,-1.234610,-1.045784,0.349095,-0.246061,-1.061839,-0.272949,-0.686523,0.748047
479,3139479390,9.785012,-1.285640,-1.002229,0.249564,-0.260148,-0.841262,-0.275635,-0.685547,0.749756
480,3139496057,9.824569,-1.307339,-1.003292,0.684723,-0.405910,-0.815636,-0.277344,-0.684814,0.746338
481,3139512724,9.830949,-1.315510,-1.006113,0.738753,-0.600707,-0.766831,-0.277344,-0.684814,0.748047
482,3139529391,9.796127,-1.266442,-1.016049,0.798674,-0.648347,-0.649781,-0.274658,-0.681152,0.754150
483,3139546058,9.790814,-1.285801,-0.985382,0.824991,-0.872369,-0.629547,-0.273926,-0.688232,0.748047
484,3139562725,9.802766,-1.324921,-1.008924,0.945089,-0.698330,-0.566527,-0.274902,-0.684570,0.756836
485,3139579392,9.814257,-1.331070,-1.033395,0.125650,-0.631865,-0.807517,-0.279297,-0.685547,0.755859
486,3139596059,9.836173,-1.331584,-1.024850,0.128697,-0.756407,-0.924106,-0.273926,-0.681152,0.753174
487,3139612726,9.837164,-1.250901,-1.010951,0.237257,-0.813242,-1.006054,-0.275635,-0.687500,0.748779
488,3139629393,9.816456,-1.215043,-1.013666,0.157755,-0.734060,-0.903155,-0.271240,-0.683105,0.754150
489,3139646060,9.783257,-1.285819,-1.014817,0.025107,-0.768291,-0.818800,-0.277344,-0.682861,0.754150
490,3139662727,9.805827,-1.279323,-1.040099,0.518997,-0.672052,-0.727759,-0.273926,-0.684814,0.751465
491,3139679394,9.807105,-1.257054,-1.055867,0.486507,-0.633658,-0.615384,-0.272949,-0.682129,0.752441
492,3139696061,9.821515,-1.268940,-1.039866,-0.098058,-0.746853,-0.482197,-0.273926,-0.687256,0.751465
493,3139712728,9.780792,-1.252515,-1.031766,-0.131662,-0.890899,-0.446609,-0.272217,-0.683838,0.754883
494,3139729395,9.808111,-1.285386,-1.008735,0.458576,-1.084506,-0.350523,-0.273926,-0.685547,0.749756
495,3139746062,9.829494,-1.271856,-0.990349,1.161619,-1.005286,-0.300399,-0.272949,-0.686523,0.753174
496,3139762729,9.835625,-1.314872,-1.005995,1.755206,-1.179478,-0.409137,-0.272217,-0.683838,0.757568
497,3139779396,9.810818,-1.265025,-1.015979,2.186383,-1.069241,-0.397176,-0.270264,-0.686523,0.752441
498,3139796063,9.802986,-1.236624,-1.065379,1.525486,-0.838329,-0.223624,-0.272217,-0.683838,0.752441
499,3139812730,9.788290,-1.228288,-1.074604,0.041691,-0.810271,-0.146377,-0.262451,-0.683105,0.752441
500,3139829397,9.785920,-1.244423,-1.053609,-0.368618,-1.005759,-0.046718,-0.265869,-0.684082,0.750732
501,3139846064,9.803907,-1.317361,-1.035654,0.314556,-0.962077,0.056700,-0.269531,-0.688232,0.753174
502,3139862731,9.816403,-1.296102,-1.070207,1.240455,-0.753423,0.028590,-0.270264,-0.683838,0.756836
503,3139879398,9.798105,-1.288450,-1.078721,1.348784,-1.043794,-0.016879,-0.272217,-0.683105,0.752441
504,3139896065,9.837357,-1.308591,-1.039947,1.548140,-0.935017,-0.172668,-0.270264,-0.684814,0.756836
505,3139912732,9.868804,-1.307381,-1.036057,1.625593,-0.495849,-0.427335,-0.272217,-0.683838,0.754883
506,3139929399,9.780247,-1.300694,-1.038551,1.130717,-0.503955,-0.568256,-0.272217,-0.683838,0.753174
507,3139946066,9.809999,-1.344603,-1.073207,1.646096,-0.512446,-0.663945,-0.270264,-0.679443,0.757568
508,3139962733,9.847337,-1.261300,-1.087932,1.922585,-0.327138,-0.675048,-0.271240,-0.681152,0.754150
509,3139979400,9.801500,-1.208160,-1.073730,1.440413,-0.395460,-0.704605,-0.266846,-0.683838,0.755859
510,3139996067,9.767483,-1.193260,-1.016828,0.553305,-0.532411,-0.509206,-0.268555,-0.681152,0.756592
511,3140012734,9.787841,-1.131047,-1.001691,-0.479585,-0.713980,-0.159734,-0.271240,-0.678711,0.754883
512,3140029401,9.807895,-1.337913,-1.033613,-0.091271,-0.405347,0.009291,-0.270264,-0.685547,0.754150
513,3140046068,9.775194,-1.206685,-1.028298,1.601825,-0.360806,0.063411,-0.272949,-0.682129,0.755859
514,3140062735,9.870158,-1.154432,-0.987154,1.239046,-0.625539,0.409297,-0.268555,-0.684814,0.748779
515,3140079402,9.939243,-1.233742,-1.068394,1.000361,-0.478714,0.373401,-0.265869,-0.681396,0.751465
516,3140096069,9.826842,-1.429659,-1.163557,1.380044,0.288533,0.134204,-0.271240,-0.681152,0.753174
517,3140112736,9.792583,-1.355039,-1.136528,2.657388,0.450265,-0.356311,-0.267822,-0.684814,0.758545
518,3140129403,9.759131,-1.204149,-1.018178,2.393449,0.200810,-0.262517,-0.270264,-0.678467,0.758545
519,3140146070,9.860551,-1.084215,-0.941094,0.751342,-0.392694,-0.289398,-0.269531,-0.677734,0.755859
520,3140162737,9.941866,-1.305295,-0.995690,-0.621927,-0.540940,-0.492878,-0.268555,-0.680420,0.756592
521,3140179404,9.857624,-1.382648,-1.062643,0.421886,-0.432714,-0.780624,-0.270264,-0.680176,0.759277
522,3140196071,9.752247,-1.154681,-1.073838,1.093464,-0.445456,-0.641470,-0.270264,-0.683838,0.754883
523,3140212738,9.745365,-1.163615,-1.016768,1.042033,-0.341981,-0.426695,-0.268555,-0.683838,0.760986
524,3140229405,9.846315,-1.091300,-1.008716,0.921206,0.209902,0.282271,-0.265869,-0.682129,0.755859
525,3140246072,9.843660,-1.187337,-1.041617,0.252612,0.262357,0.525169,-0.271240,-0.682129,0.756592
526,3140262739,9.844583,-1.300176,-1.106943,0.195290,0.128262,0.481743,-0.270508,-0.682861,0.760254
527,3140279406,9.784370,-1.296533,-1.107877,0.056073,-0.091450,0.280952,-0.269531,-0.683838,0.754150
528,3140296073,9.818290,-1.198855,-1.051680,-0.048024,-0.279768,0.086808,-0.270264,-0.680420,0.753174
529,3140312740,9.808262,-1.204398,-0.999934,-1.053566,-0.537751,0.323584,-0.269531,-0.684814,0.752441
530,3140329407,9.806132,-1.338063,-0.963094,-0.440692,-0.438003,0.310881,-0.272217,-0.679443,0.759277
531,3140346074,9.819001,-1.186714,-0.994022,-0.288642,-0.125028,0.293233,-0.267822,-0.683838,0.753174
532,3140362741,9.835473,-1.233607,-0.985385,-0.750426,-0.131291,0.408567,-0.266846,-0.677002,0.754883
533,3140379408,9.772938,-1.152995,-1.016183,-2.038720,-0.361895,0.481512,-0.272949,-0.682861,0.755859
534,3140396075,9.756949,-1.216069,-1.050030,-2.760742,-0.757803,0.743377,-0.265869,-0.685547,0.757568
535,3140412742,9.817589,-1.211594,-1.109023,-3.312798,-0.782109,0.728432,-0.268555,-0.688232,0.753174
536,3140429409,9.829092,-1.305085,-1.105254,-3.582781,-0.470621,0.645267,-0.269531,-0.685547,0.757568
537,3140446076,9.790633,-1.581232,-1.085444,-1.609336,-0.488127,0.073131,-0.270264,-0.686523,0.751465
538,3140462743,9.861872,-1.225971,-1.059080,0.840116,-0.190456,-0.123351,-0.267822,-0.687500,0.754150
539,3140479410,9.838848,-1.350850,-1.015209,1.661413,0.025350,-0.040058,-0.273926,-0.683838,0.750488
540,3140496077,9.812305,-1.387167,-1.054715,2.992659,0.159471,-0.376417,-0.271240,-0.685547,0.754150
541,3140512744,9.797812,-1.259583,-1.050861,2.756381,0.203512,-0.729898,-0.272217,-0.684814,0.753174
542,3140529411,9.809784,-1.326167,-1.033910,2.339918,0.224579,-1.081701,-0.272217,-0.687256,0.754150
543,3140546078,9.753573,-1.289891,-1.023245,1.606486,0.256799,-1.436130,-0.268555,-0.689209,0.752441
544,3140562745,9.826406,-1.284251,-0.988882,0.923344,0.155475,-1.835585,-0.267822,-0.683838,0.754883
545,3140579412,9.848755,-1.277383,-0.999000,0.201681,0.381584,-2.067713,-0.270264,-0.683838,0.752441
546,3140596079,9.854012,-1.383867,-1.007679,0.823199,0.276726,-2.494626,-0.268555,-0.686523,0.756836
547,3140612746,9.835484,-1.241366,-0.965231,0.879918,0.245376,-2.886949,-0.267822,-0.685547,0.754150
548,3140629413,9.856027,-1.265646,-0.997080,0.470268,0.188209,-3.039331,-0.268555,-0.682129,0.754883
549,3140646080,9.845613,-1.167393,-1.018145,1.340703,0.100114,-3.161299,-0.265137,-0.685791,0.755859
550,3140662747,9.785901,-1.097127,-0.978119,2.180236,-0.017199,-2.719889,-0.269531,-0.682129,0.752441
551,3140679414,9.801299,-0.975885,-1.008327,2.524125,-0.010745,-1.989505,-0.265869,-0.687500,0.754150
552,3140696081,9.830132,-0.969718,-0.949402,1.744654,0.001594,-1.346882,-0.263428,-0.686523,0.754150
553,3140712748,9.842708,-1.055442,-0.989132,0.784152,-0.191890,-0.838739,-0.269531,-0.683838,0.754883
554,3140729415,9.833323,-1.188166,-1.031754,-0.521270,-0.522537,-0.678890,-0.265869,-0.682129,0.753174
555,3140746082,9.817187,-1.172537,-1.003253,-0.531169,-0.637334,-0.730910,-0.261475,-0.684082,0.754883
556,3140762749,9.818715,-1.196051,-1.015103,0.579660,-0.779804,-0.547036,-0.264160,-0.682129,0.757568
557,3140779416,9.824715,-1.130703,-1.014146,1.540828,-0.565067,-0.341917,-0.266846,-0.684814,0.752441
558,3140796083,9.849401,-1.100493,-0.980015,0.933218,-0.397791,-0.265745,-0.265869,-0.685791,0.754150
559,3140812750,9.870268,-1.180395,-0.943836,0.271002,-0.406935,-0.444854,-0.263428,-0.679688,0.754150
560,3140829417,9.815237,-1.249602,-1.018007,0.320460,-0.094805,-0.658259,-0.264160,-0.683838,0.756836
561,3140846084,9.786892,-1.145260,-1.056774,0.924433,-0.192300,-0.756894,-0.266846,-0.685547,0.754883
562,3140862751,9.821149,-1.133518,-1.021186,0.469538,-0.268626,-0.575825,-0.264160,-0.686523,0.755859
563,3140879418,9.839352,-1.198691,-1.032061,0.104468,-0.345144,-0.701852,-0.269531,-0.685547,0.757568
564,3140896085,9.815073,-1.151475,-1.005105,-0.118087,-0.438989,-0.904909,-0.265869,-0.682129,0.752441
565,3140912752,9.879506,-1.248082,-0.979422,-0.211266,-0.153715,-1.181258,-0.265137,-0.682129,0.754883
566,3140929419,9.893892,-1.239918,-0.977485,0.911345,0.029051,-1.234711,-0.266846,-0.681396,0.752441
567,3140946086,9.822627,-1.122525,-1.026391,1.744552,0.177438,-1.300895,-0.262451,-0.684814,0.752441
568,3140962753,9.846753,-1.060301,-1.020849,1.627488,0.318167,-1.097875,-0.267822,-0.683105,0.754883
569,3140979420,9.784606,-1.058691,-1.003155,1.682556,0.311162,-0.823192,-0.264160,-0.681396,0.757568
570,3140996087,9.815470,-1.061425,-1.021588,1.347683,0.086270,-0.598377,-0.266846,-0.687500,0.754883
571,3141012754,9.820759,-1.061193,-1.006624,0.349274,-0.062303,-0.194477,-0.265869,-0.682129,0.759277
572,3141029421,9.831584,-1.174784,-0.978336,0.739676,0.028244,-0.061535,-0.265869,-0.686523,0.754883
573,3141046088,9.830173,-1.110436,-0.970891,1.730631,0.026836,0.160457,-0.267822,-0.683105,0.752441
574,3141062755,9.807674,-1.185270,-0.985297,2.091398,0.019357,0.099870,-0.264160,-0.681396,0.757568
575,3141079422,9.828892,-1.146283,-1.005368,2.332927,0.185378,-0.050419,-0.265869,-0.683105,0.755859
576,3141096089,9.873092,-1.145451,-0.968927,1.607908,0.384479,-0.337447,-0.265137,-0.683105,0.756836
577,3141112756,9.870506,-1.161260,-0.982102,1.053482,0.280145,-0.667954,-0.267822,-0.682129,0.757568
578,3141129423,9.846829,-1.053769,-0.942438,-0.008145,0.149149,-0.793417,-0.262451,-0.683838,0.758545
579,3141146090,9.849952,-1.060661,-0.950820,-0.990430,0.262434,-0.602155,-0.264160,-0.683105,0.755859
580,3141162757,9.836626,-1.173364,-0.993603,-0.462194,0.408414,-0.551672,-0.262451,-0.682373,0.753174
581,3141179424,9.844142,-1.125332,-1.032094,0.232570,0.397259,-0.658259,-0.265869,-0.683105,0.754883
582,3141196091,9.838193,-1.042082,-1.001753,0.599920,0.388974,-0.365865,-0.261475,-0.684082,0.754883
583,3141212758,9.895112,-1.018940,-0.953935,0.598755,0.393238,-0.115718,-0.271240,-0.681152,0.754883
584,3141229425,9.836158,-1.051541,-0.921367,0.535363,0.370340,0.148419,-0.267822,-0.683105,0.754150
585,3141246092,9.803954,-1.164964,-0.978129,-0.312334,0.373657,0.443042,-0.265137,-0.684814,0.754883
586,3141262759,9.840173,-1.239107,-1.002696,1.221271,0.830191,0.081737,-0.265137,-0.684814,0.751465
587,3141279426,9.856927,-1.022362,-0.954466,1.041111,0.916621,0.142733,-0.267822,-0.683105,0.752441
588,3141296093,9.845778,-1.115612,-0.935575,-0.060049,0.759654,0.090368,-0.266846,-0.682129,0.753174
589,3141312760,9.868909,-1.107895,-0.948618,-0.889913,0.672071,-0.015406,-0.265137,-0.683105,0.755859
590,3141329427,9.835336,-1.254784,-0.960047,-0.863545,0.721567,-0.243065,-0.265137,-0.689209,0.755127
591,3141346094,9.825919,-1.193783,-0.980335,0.933833,0.826387,-0.601745,-0.264160,-0.683105,0.754883
592,3141362761,9.843464,-1.085523,-0.928340,-0.163102,0.972777,-0.716938,-0.268555,-0.684814,0.756836
593,3141379428,9.870448,-1.139011,-0.938470,-0.360512,0.464595,-0.797464,-0.267822,-0.680420,0.751465
594,3141396095,9.839082,-1.150790,-0.951844,0.517268,0.610472,-0.724250,-0.267822,-0.685547,0.757568
595,3141412762,9.866789,-1.125682,-0.926969,1.998847,0.781360,-0.915244,-0.270264,-0.683105,0.751465
596,3141429429,9.849690,-0.957988,-0.883512,1.001271,0.752943,-0.685972,-0.265869,-0.682129,0.751465
597,3141446096,9.839202,-1.064540,-0.883231,0.010994,0.832701,-0.362484,-0.268555,-0.679443,0.754150
598,3141462763,9.797733,-1.113997,-0.902475,0.103866,0.915776,-0.334207,-0.268555,-0.682129,0.754883
599,3141479430,9.774539,-1.134315,-0.919134,1.040061,0.674389,-0.261314,-0.264160,-0.684082,0.754150
600,3141496097,9.835155,-1.100508,-0.913952,1.381824,0.518395,-0.250313,-0.266846,-0.682129,0.752441
601,3141512764,9.891715,-1.039457,-0.872631,0.225155,0.096323,-0.254680,-0.266846,-0.686523,0.752441
602,3141529431,9.839656,-1.104619,-0.824133,0.059287,-0.066747,-0.222626,-0.268555,-0.685791,0.750732
603,3141546098,9.818709,-1.120901,-0.886728,0.376577,0.221108,-0.227415,-0.268555,-0.685791,0.750732
604,3141562765,9.783158,-1.134827,-0.888230,0.470960,0.172687,-0.298452,-0.268555,-0.683838,0.754150
605,3141579432,9.819762,-1.220762,-0.984329,0.745362,0.202923,-0.531963,-0.271240,-0.682129,0.752441
606,3141596099,9.932854,-1.072887,-0.972544,1.175412,0.063283,-0.901567,-0.271240,-0.683838,0.756836
607,3141612766,9.909173,-1.004067,-0.867041,0.026644,-0.015931,-0.747033,-0.265869,-0.681396,0.751465
608,3141629433,9.868283,-1.095757,-0.837101,0.089907,0.002196,-0.807517,-0.267822,-0.684814,0.755859
609,3141646100,9.848536,-1.030781,-0.846787,0.918913,0.177387,-0.654392,-0.269531,-0.681396,0.750488
610,3141662767,9.821366,-0.973583,-0.916925,0.137060,0.609064,-0.355107,-0.272217,-0.687256,0.754150
611,3141679434,9.783025,-1.093454,-0.920377,-0.709741,0.417865,-0.195386,-0.267822,-0.684082,0.749756
612,3141696101,9.846043,-1.070173,-0.937932,0.308729,0.457744,-0.165407,-0.269531,-0.683838,0.753174
613,3141712768,9.845742,-1.055746,-0.852900,0.142131,0.139275,-0.067361,-0.266846,-0.681152,0.758545
614,3141729435,9.850903,-1.080855,-0.844986,0.565752,0.035979,0.085963,-0.266846,-0.684814,0.753174
615,3141746102,9.846268,-1.129146,-0.844577,1.345838,0.055893,-0.011193,-0.267822,-0.681396,0.752441
616,3141762769,9.869834,-1.067871,-0.894128,1.563201,0.162647,-0.143239,-0.267822,-0.683105,0.754150
617,3141779436,9.836866,-1.074657,-0.904426,0.620384,0.199414,-0.120661,-0.268555,-0.680420,0.754150
618,3141796103,9.848700,-1.017241,-0.892468,0.104186,0.146716,-0.105435,-0.272217,-0.682129,0.749756
619,3141812770,9.844050,-1.017939,-0.815533,-0.773491,-0.036088,0.070147,-0.266846,-0.684082,0.748779
620,3141829437,9.839380,-1.067698,-0.820539,-0.060741,0.101766,0.131067,-0.266846,-0.684814,0.751465
621,3141846104,9.814197,-1.086731,-0.908643,0.268261,0.094248,0.086616,-0.270264,-0.684814,0.748779
622,3141862771,9.840979,-1.073520,-0.935711,0.513733,0.187709,0.053844,-0.268555,-0.685791,0.750732
623,3141879438,9.827335,-1.093486,-0.948775,0.324276,0.176196,-0.070550,-0.270264,-0.684814,0.750732
624,3141896105,9.836366,-1.143746,-0.887561,0.162007,0.249717,-0.131854,-0.270264,-0.680420,0.753174
625,3141912772,9.907289,-1.048876,-0.811713,0.433361,0.163044,-0.191519,-0.272217,-0.685547,0.753174
626,3141929439,9.902933,-1.087507,-0.790517,0.234286,0.089523,-0.181133,-0.270264,-0.684814,0.748779
627,3141946106,9.829897,-1.054010,-0.821996,0.917095,0.021790,-0.083357,-0.267822,-0.684814,0.748047
628,3141962773,9.816117,-1.058259,-0.852004,1.402660,-0.085406,0.059492,-0.269531,-0.685547,0.754150
629,3141979440,9.791140,-1.010317,-0.887300,0.826246,0.162570,0.186044,-0.270264,-0.683838,0.753174
630,3141996107,9.853836,-1.061990,-0.915219,0.015938,0.242751,0.240484,-0.271240,-0.683838,0.752441
631,3142012774,9.875172,-1.025545,-0.849947,-0.340098,-0.003739,0.352988,-0.270264,-0.683105,0.750488
632,3142029441,9.849047,-1.040580,-0.770168,-0.468034,-0.005609,0.367625,-0.271240,-0.685547,0.754150
633,3142046108,9.823652,-1.082532,-0.816577,0.072670,-0.079015,0.503962,-0.272949,-0.683838,0.750488
634,3142062775,9.821123,-1.072766,-0.871068,0.238845,-0.081871,0.551230,-0.272949,-0.683105,0.750488
635,3142079442,9.863516,-1.131348,-0.900975,-0.417167,0.088908,0.348518,-0.271240,-0.685791,0.749756
636,3142096109,9.892570,-1.125964,-0.878113,-0.826125,-0.118139,0.102790,-0.270264,-0.683105,0.749756
637,3142112776,9.886336,-1.117025,-0.830270,0.014811,-0.215608,-0.131867,-0.270264,-0.682129,0.750488
638,3142129443,9.861159,-1.082142,-0.812825,0.782769,-0.259201,-0.130497,-0.271240,-0.687500,0.748047
639,3142146110,9.842979,-1.044116,-0.836203,1.057324,-0.093947,-0.067976,-0.268555,-0.684814,0.754150
640,3142162777,9.815902,-1.055928,-0.856784,0.988336,0.161430,-0.015444,-0.272949,-0.685547,0.749756
641,3142179444,9.833097,-1.018622,-0.864230,0.353615,0.275100,-0.014279,-0.268555,-0.686523,0.750732
642,3142196111,9.868684,-1.042850,-0.824394,-0.354454,0.182587,0.155002,-0.271240,-0.679688,0.748047
643,3142212778,9.838643,-1.061068,-0.788432,-0.053748,-0.171170,0.212336,-0.273926,-0.686523,0.752441
644,3142229445,9.820927,-1.108395,-0.792691,0.547772,-0.312834,0.177118,-0.272949,-0.684814,0.753174
645,3142246112,9.869081,-1.093361,-0.822163,0.663273,-0.327484,0.073143,-0.275635,-0.688232,0.752441
646,3142262779,9.825336,-1.122400,-0.881692,0.452135,-0.335257,-0.021860,-0.267822,-0.685791,0.748047
647,3142279446,9.895061,-1.052016,-0.909369,0.398297,-0.140627,-0.148618,-0.272949,-0.680420,0.749756
648,3142296113,9.863730,-1.003426,-0.817031,-0.352841,-0.048216,0.005539,-0.268555,-0.684814,0.748047
649,3142312780,9.852887,-1.066783,-0.821294,-0.257305,-0.167597,0.102777,-0.275635,-0.689941,0.751465
650,3142329447,9.840903,-1.051630,-0.847318,0.726062,-0.093973,0.170728,-0.274658,-0.679688,0.744385
651,3142346114,9.853856,-1.071774,-0.862521,1.452707,0.176875,0.178181,-0.272949,-0.683105,0.751465
652,3142362781,9.838657,-1.034747,-0.872927,0.088396,0.300930,0.110218,-0.275635,-0.686523,0.751465
653,3142379448,9.841927,-1.112630,-0.849195,-0.804930,0.127839,0.078368,-0.274658,-0.687500,0.749756
654,3142396115,9.834084,-1.122432,-0.787509,-0.145147,-0.140563,-0.195527,-0.271240,-0.683838,0.748779
655,3142412782,9.899364,-1.106382,-0.795885,-0.147132,-0.271008,-0.240106,-0.272217,-0.683838,0.750488
656,3142429449,9.878837,-1.091340,-0.782460,0.454914,-0.430421,-0.263875,-0.268555,-0.685791,0.748047
657,3142446116,9.836106,-1.046269,-0.767546,1.085012,-0.281509,-0.176356,-0.275635,-0.679443,0.746094
658,3142462783,9.831448,-1.008029,-0.783901,0.499364,-0.277872,-0.107650,-0.272217,-0.688477,0.746338
659,3142479450,9.842768,-1.040394,-0.895733,0.228779,-0.308940,-0.060049,-0.274658,-0.685547,0.748779
660,3142496117,9.879809,-1.061243,-0.862152,-0.408830,-0.034539,-0.012576,-0.277344,-0.682861,0.750488
661,3142512784,9.863297,-1.013222,-0.794716,-0.375469,-0.110468,0.091700,-0.277344,-0.686523,0.748779
662,3142529451,9.852065,-1.148435,-0.804293,0.627453,0.057597,0.065767,-0.272949,-0.683105,0.749756
663,3142546118,9.857946,-1.046604,-0.835087,1.820685,0.052436,0.390779,-0.272949,-0.683838,0.749756
664,3142562785,9.806405,-0.976359,-0.832942,1.201063,-0.047716,0.494011,-0.272949,-0.687500,0.748779
665,3142579452,9.785266,-1.014645,-0.826809,0.066932,-0.363457,0.489030,-0.278320,-0.684814,0.746338
666,3142596119,9.814011,-1.158991,-0.825557,-0.570779,-0.318648,0.294335,-0.275635,-0.682861,0.751465
667,3142612786,9.870858,-1.136794,-0.835695,0.517780,-0.294981,-0.220026,-0.268555,-0.680420,0.748779
668,3142629453,9.910672,-1.137584,-0.834462,0.250383,0.116058,-0.390005,-0.270264,-0.685791,0.748047
669,3142646120,9.901734,-1.117633,-0.804386,0.160252,-0.367158,-0.707474,-0.272217,-0.684814,0.748779
670,3142662787,9.838578,-1.064577,-0.788116,0.297959,-0.512805,-0.731307,-0.266846,-0.685791,0.750732
671,3142679454,9.850179,-1.086583,-0.740356,0.007524,-0.855643,-0.787578,-0.274658,-0.682129,0.748779
672,3142696121,9.855776,-1.027964,-0.789333,0.319807,-0.814394,-0.839482,-0.271240,-0.684082,0.747070
673,3142712788,9.870337,-0.973898,-0.788406,0.389409,-0.594932,-0.570305,-0.273926,-0.682129,0.744385
674,3142729455,9.800206,-0.984144,-0.793153,-0.522115,-0.567475,-0.259854,-0.269531,-0.686768,0.745361
675,3142746122,9.764471,-1.060217,-0.842798,-0.770276,-0.551646,-0.280664,-0.272217,-0.687500,0.748047
676,3142762789,9.816622,-1.144581,-0.873377,0.586691,-0.456149,-0.403887,-0.270264,-0.684814,0.749756
677,3142779456,9.868099,-1.143018,-0.870360,1.731463,-0.391554,-0.691312,-0.273926,-0.686523,0.747070
678,3142796123,9.889668,-1.105615,-0.885417,2.079552,0.022277,-0.973961,-0.268555,-0.684082,0.748047
679,3142812790,9.861115,-1.085080,-0.865540,1.901442,0.133372,-1.229077,-0.272217,-0.684814,0.746338
680,3142829457,9.870431,-1.060406,-0.825569,1.495903,0.436549,-1.165711,-0.270264,-0.683838,0.749756
681,3142846124,9.864295,-1.077350,-0.776677,2.039290,0.316861,-1.301202,-0.267822,-0.686768,0.746338
682,3142862791,9.883610,-0.988581,-0.781442,2.166034,0.075064,-1.374057,-0.267822,-0.682373,0.747070
683,3142879458,9.829286,-0.995370,-0.817669,1.437314,-0.009643,-1.410671,-0.271240,-0.683838,0.749756
684,3142896125,9.807415,-1.019890,-0.833539,0.945230,-0.288886,-1.473985,-0.268555,-0.685791,0.752441
685,3142912792,9.888517,-0.985724,-0.788589,0.742954,-0.311963,-1.395201,-0.269531,-0.681396,0.746338
686,3142929459,9.885780,-0.951523,-0.733914,0.738459,-0.336999,-1.170283,-0.270264,-0.683838,0.752441
687,3142946126,9.824227,-0.987778,-0.712136,0.154938,-0.351637,-0.922275,-0.270264,-0.682129,0.747070
688,3142962793,9.802982,-0.908605,-0.778677,0.926738,-0.372895,-0.653149,-0.269531,-0.685791,0.749756
689,3142979460,9.829457,-0.992166,-0.784415,0.835275,-0.377352,-0.387828,-0.270264,-0.684814,0.745361
690,3142996127,9.847386,-1.038161,-0.831756,0.842767,-0.566835,-0.638345,-0.266846,-0.677002,0.754150
691,3143012794,9.871345,-1.012887,-0.804425,0.772729,-0.897226,-0.713762,-0.269531,-0.685791,0.747070
692,3143029461,9.849327,-0.984963,-0.813743,0.256658,-0.639754,-0.702953,-0.270264,-0.687500,0.750732
693,3143046128,9.858776,-0.985628,-0.832219,-0.226916,-0.435249,-0.674459,-0.268555,-0.687500,0.753174
694,3143062795,9.834888,-1.049145,-0.841825,0.382237,0.156654,-0.684256,-0.268555,-0.684082,0.748779
695,3143079462,9.894808,-1.053686,-0.882675,1.394797,0.239844,-0.763963,-0.267822,-0.681396,0.749756
696,3143096129,9.926599,-0.962882,-0.814301,1.259549,0.007357,-0.965407,-0.272217,-0.683105,0.752441
697,3143112796,9.897727,-0.989620,-0.771067,0.374695,-0.258868,-1.087464,-0.271240,-0.687500,0.751465
698,3143129463,9.843885,-1.078183,-0.747962,1.431871,-0.224764,-1.282761,-0.266846,-0.684082,0.750732
699,3143146130,9.840068,-0.912875,-0.788131,1.279233,-0.203800,-1.325393,-0.268555,-0.681396,0.748047
700,3143162797,9.846956,-0.931565,-0.823659,0.843676,-0.110301,-1.170910,-0.271240,-0.683838,0.751465
701,3143179464,9.828096,-0.879602,-0.844711,0.549386,-0.246753,-0.933160,-0.265137,-0.685791,0.748047
702,3143196131,9.867872,-0.895139,-0.816506,0.373068,-0.041006,-0.554323,-0.270264,-0.681396,0.749756
703,3143212798,9.887434,-0.907194,-0.756675,0.392406,-0.136503,-0.244588,-0.272949,-0.682129,0.756592
704,3143229465,9.874349,-0.938769,-0.713764,0.222709,-0.390735,0.062783,-0.269531,-0.681396,0.748779
705,3143246132,9.859432,-0.971240,-0.747506,0.225091,-0.445200,0.070057,-0.268555,-0.684814,0.750732
706,3143262799,9.825406,-0.929216,-0.725955,0.528499,-0.682258,0.004476,-0.267822,-0.684814,0.751465
707,3143279466,9.848049,-0.987799,-0.764640,0.142541,-0.590193,-0.006493,-0.267822,-0.683838,0.751465
708,3143296133,9.882361,-0.942880,-0.792135,0.798380,-0.774054,0.068610,-0.267822,-0.685791,0.748047
709,3143312800,9.872652,-0.911710,-0.780802,0.563153,-0.686100,0.235118,-0.264160,-0.681396,0.746338
710,3143329467,9.851012,-0.993923,-0.788137,0.861707,-0.829531,0.318103,-0.271240,-0.680420,0.746094
711,3143346134,9.832358,-0.956250,-0.854755,0.920130,-0.703670,0.150353,-0.269531,-0.682129,0.750488
712,3143362801,9.852509,-0.995351,-0.839075,-0.007402,-0.643954,0.126508,-0.269531,-0.681396,0.753174
713,3143379468,9.892794,-0.940209,-0.792377,-0.458506,-0.853261,0.079803,-0.269531,-0.682129,0.748779
714,3143396135,9.839924,-0.953846,-0.757823,-0.362970,-0.709267,0.092238,-0.267822,-0.682129,0.752441
715,3143412802,9.866663,-0.977438,-0.798192,0.000070,-0.517069,0.194279,-0.270264,-0.683838,0.751465
716,3143429469,9.903800,-0.935744,-0.777487,0.866202,-0.613834,0.166886,-0.269531,-0.680420,0.752441
717,3143446136,9.894835,-0.939667,-0.788902,0.726485,-0.526623,0.242162,-0.267822,-0.683105,0.750488
718,3143462803,9.839809,-0.909376,-0.812017,0.207392,-0.352226,0.479271,-0.268555,-0.679443,0.754883
719,3143479470,9.827234,-0.918043,-0.820508,-0.181261,-0.831247,0.633933,-0.269531,-0.682129,0.750488
720,3143496137,9.820395,-0.884950,-0.817416,-0.373753,-1.061646,0.923434,-0.265869,-0.685791,0.751465
721,3143512804,9.857856,-0.956215,-0.790403,-0.722854,-1.214388,1.040919,-0.269531,-0.686523,0.749756
722,3143529471,9.868014,-1.027541,-0.794981,-0.585122,-0.946556,1.024040,-0.266846,-0.687500,0.748047
723,3143546138,9.862617,-1.027508,-0.819769,0.572066,-0.684474,0.888831,-0.269531,-0.680420,0.751465
724,3143562805,9.871443,-0.975982,-0.828035,0.825632,-0.725890,0.841486,-0.266846,-0.687500,0.750732
725,3143579472,9.855066,-1.007242,-0.817074,0.038208,-0.664739,0.713090,-0.269531,-0.683105,0.748779
726,3143596139,9.856682,-1.110294,-0.850032,-0.003099,-0.576952,0.340617,-0.273926,-0.683838,0.750488
727,3143612806,9.873676,-0.991879,-0.830592,0.437587,-0.578885,0.219469,-0.269531,-0.683105,0.751465
728,3143629473,9.882061,-0.984453,-0.829102,1.184094,-0.692030,-0.071088,-0.267822,-0.685791,0.750732
729,3143646140,9.858661,-0.926525,-0.813215,1.344353,-0.652035,0.093890,-0.264160,-0.681396,0.750488
730,3143662807,9.842783,-0.916278,-0.820099,0.520969,-0.605279,0.263856,-0.266846,-0.683105,0.751465
731,3143679474,9.854759,-1.004760,-0.774769,0.749344,-0.521142,0.416956,-0.270264,-0.684814,0.753174
732,3143696141,9.821969,-0.921316,-0.796465,0.911460,-0.410802,0.546184,-0.271240,-0.680420,0.751465
733,3143712808,9.833279,-1.015042,-0.768001,0.798585,-0.498052,0.749793,-0.265869,-0.679688,0.748047
734,3143729475,9.824338,-0.937123,-0.799114,0.592812,-0.561520,0.852346,-0.266846,-0.679688,0.752441
735,3143746142,9.875271,-0.937324,-0.776406,0.158587,-0.862213,0.792579,-0.265137,-0.683105,0.747070
736,3143762809,9.881305,-0.992877,-0.778341,-0.033053,-1.148486,1.003935,-0.268555,-0.679443,0.752441
737,3143779476,9.841524,-1.020500,-0.808985,-0.058666,-0.939487,0.789710,-0.270264,-0.680420,0.752441
738,3143796143,9.848571,-1.020790,-0.815718,0.310509,-0.928307,0.755440,-0.265869,-0.680420,0.753174
739,3143812810,9.858754,-0.995576,-0.832234,0.344997,-0.665866,0.677181,-0.268555,-0.682129,0.753174
740,3143829477,9.865421,-0.979125,-0.828891,0.299508,-0.749620,0.739842,-0.269531,-0.683838,0.751465
741,3143846144,9.894145,-0.961989,-0.833270,-0.554233,-0.673512,0.798764,-0.267822,-0.680420,0.752441
742,3143862811,9.860139,-0.993672,-0.830329,-0.738478,-0.843900,0.879265,-0.263428,-0.681396,0.748047
743,3143879478,9.877456,-0.997393,-0.840592,-0.482646,-0.912952,0.973225,-0.266846,-0.680420,0.749756
744,3143896145,9.850029,-0.990927,-0.820890,-0.173654,-0.640689,1.090160,-0.266846,-0.681396,0.751465
745,3143912812,9.839591,-1.053126,-0.820826,0.232237,-0.345771,0.959893,-0.272217,-0.683838,0.748047
746,3143929479,9.870400,-1.050919,-0.842991,0.335213,-0.236572,0.647252,-0.270264,-0.685547,0.753174
747,3143946146,9.905968,-0.987157,-0.850066,0.654731,-0.379772,0.763047,-0.269531,-0.682129,0.750488
748,3143962813,9.882893,-0.996554,-0.809508,0.617004,-0.426182,1.065341,-0.272217,-0.680420,0.748779
749,3143979480,9.820303,-1.004067,-0.819515,0.329898,-0.643762,1.105732,-0.268555,-0.681396,0.750488
750,3143996147,9.830836,-1.016692,-0.842566,0.244941,-0.723802,1.162362,-0.265869,-0.685059,0.744385
751,3144012814,9.849091,-1.002478,-0.844715,0.384069,-0.464768,1.205186,-0.273926,-0.686523,0.754150
752,3144029481,9.858418,-0.999670,-0.827238,0.003042,-0.501279,1.188730,-0.273926,-0.683838,0.750488
753,3144046148,9.870646,-1.028992,-0.817093,-0.084368,-0.398162,1.432909,-0.266846,-0.680420,0.749756
754,3144062815,9.856146,-1.055066,-0.828819,0.559644,-0.324372,1.294536,-0.271240,-0.677734,0.754883
755,3144079482,9.846068,-1.101677,-0.827482,1.014180,-0.511537,1.155306,-0.272217,-0.675293,0.748779
756,3144096149,9.855507,-1.115908,-0.840004,0.503475,-0.348256,0.854139,-0.270264,-0.681152,0.754150
757,3144112816,9.895999,-1.115444,-0.851924,0.167193,-0.113964,0.500056,-0.272217,-0.680420,0.751465
758,3144129483,9.895748,-1.035477,-0.818783,0.287419,-0.031376,0.345458,-0.271240,-0.681396,0.750488
759,3144146150,9.858620,-1.016115,-0.829533,0.235758,-0.344965,0.316490,-0.271240,-0.683105,0.747070
760,3144162817,9.826161,-0.971433,-0.843953,0.704689,-0.548214,0.431363,-0.272949,-0.683105,0.752441
761,3144179484,9.818022,-0.998435,-0.812332,0.807703,-0.601553,0.695903,-0.272217,-0.684814,0.754150
762,3144196151,9.825307,-1.042725,-0.799970,0.548784,-0.594778,0.816949,-0.272949,-0.679443,0.753174
763,3144212818,9.852673,-1.071835,-0.803305,0.794922,-0.690454,0.941965,-0.269531,-0.685791,0.747070
764,3144229485,9.864461,-1.002215,-0.812048,1.125351,-0.472541,0.902790,-0.274658,-0.685547,0.751465
765,3144246152,9.896228,-0.995613,-0.816143,0.419414,-0.419536,1.122381,-0.273926,-0.681152,0.749756
766,3144262819,9.856494,-1.046949,-0.848179,-0.604511,-0.601258,1.172850,-0.273926,-0.682861,0.752441
767,3144279486,9.835574,-1.091461,-0.851813,-0.453908,-0.640382,1.141359,-0.272949,-0.683105,0.750488
768,3144296153,9.841442,-1.049675,-0.807135,-0.442101,-0.697459,1.081400,-0.274658,-0.682129,0.751465
769,3144312820,9.831503,-1.088436,-0.798404,0.063808,-0.684243,1.046375,-0.271240,-0.679443,0.752441
770,3144329487,9.877716,-0.972440,-0.791945,0.974467,-0.766012,1.304333,-0.272949,-0.680420,0.752441
771,3144346154,9.844069,-1.049700,-0.795253,0.350849,-0.852929,1.487528,-0.274658,-0.683838,0.748779
772,3144362821,9.800603,-1.044760,-0.830850,0.539832,-0.921020,1.719092,-0.277344,-0.679443,0.747070
773,3144379488,9.798895,-1.092091,-0.834297,-0.032759,-0.829378,1.565083,-0.272949,-0.684082,0.745361
774,3144396155,9.864769,-1.162512,-0.853374,0.002580,-0.631417,1.408398,-0.277344,-0.682129,0.753174
775,3144412822,9.879829,-1.102823,-0.847080,0.386694,-0.717834,1.171083,-0.272217,-0.683838,0.751465
776,3144429489,9.864593,-1.084743,-0.822810,0.148406,-0.721830,1.112289,-0.274658,-0.685547,0.751465
777,3144446156,9.848598,-1.101777,-0.813097,-0.106959,-0.913259,0.986928,-0.274658,-0.685547,0.751465
778,3144462823,9.857190,-1.077870,-0.828286,0.018038,-0.914758,1.150759,-0.273926,-0.677734,0.750488
779,3144479490,9.814326,-1.059077,-0.830179,-0.321670,-0.717143,1.271472,-0.276611,-0.682129,0.750488
780,3144496157,9.792323,-1.088414,-0.840402,-0.611260,-0.961795,1.469368,-0.272217,-0.678711,0.748047
781,3144512824,9.831507,-1.075840,-0.855892,-0.489638,-1.084762,1.498234,-0.275635,-0.683838,0.751465
782,3144529491,9.890793,-1.113915,-0.839622,0.034199,-1.027799,1.629230,-0.277344,-0.682129,0.747070
783,3144546158,9.845108,-1.138819,-0.828284,0.118440,-1.039453,1.517815,-0.274658,-0.680420,0.751465
784,3144562825,9.829589,-1.119666,-0.827423,0.533237,-0.711482,1.581693,-0.272949,-0.681152,0.750488
785,3144579492,9.802384,-1.167297,-0.863154,0.374797,-0.496208,1.474056,-0.272949,-0.678711,0.752441
786,3144596159,9.816036,-1.176892,-0.856129,0.311675,-0.795838,1.331444,-0.279053,-0.682129,0.749756
787,3144612826,9.870357,-1.150234,-0.836701,0.004361,-0.866401,0.907259,-0.277344,-0.680176,0.754883
788,3144629493,9.874700,-1.141466,-0.834749,0.238345,-1.060520,0.863142,-0.277344,-0.680420,0.751465
789,3144646160,9.848786,-1.145470,-0.854097,-0.013767,-1.018643,0.750651,-0.277344,-0.677734,0.754883
790,3144662827,9.806210,-1.146552,-0.845874,0.556455,-1.067768,0.691754,-0.277344,-0.682129,0.751465
791,3144679494,9.841609,-1.156381,-0.860202,1.160287,-0.774989,0.616671,-0.279297,-0.686279,0.753174
792,3144696161,9.832937,-1.115256,-0.824638,0.226756,-0.961834,0.664425,-0.276611,-0.679443,0.755859
793,3144712828,9.841733,-1.171887,-0.859974,-0.307954,-0.631366,0.380701,-0.277344,-0.682861,0.749756
794,3144729495,9.877831,-1.088111,-0.846288,-0.048126,-0.660231,0.444195,-0.277344,-0.682129,0.751465
795,3144746162,9.867677,-1.102886,-0.875719,0.071491,-0.547241,0.768439,-0.275635,-0.682129,0.750488
796,3144762829,9.833357,-1.092974,-0.838356,0.192294,-0.733484,0.819318,-0.279297,-0.680176,0.751465
797,3144779496,9.822914,-1.062916,-0.801849,-0.014241,-0.828340,1.038204,-0.277344,-0.683838,0.749756
798,3144796163,9.795691,-1.153258,-0.844700,0.364654,-0.970235,1.344686,-0.274658,-0.680420,0.744385
799,3144812830,9.816165,-1.124181,-0.812341,0.812582,-1.179670,1.488821,-0.279297,-0.681152,0.756592
800,3144829497,9.879177,-1.098182,-0.811948,0.030281,-1.127586,1.653229,-0.279297,-0.678467,0.751465
801,3144846164,9.817299,-1.153543,-0.823908,0.052973,-1.399926,1.716570,-0.277344,-0.679443,0.753174
802,3144862831,9.801411,-1.162602,-0.827450,-0.517108,-1.267752,1.683773,-0.273926,-0.682129,0.753174
803,3144879498,9.796613,-1.224636,-0.889329,0.402062,-1.093419,1.670697,-0.278320,-0.677734,0.754150
804,3144896165,9.853611,-1.182361,-0.923187,0.899781,-1.003979,1.651923,-0.275635,-0.681152,0.749756
805,3144912832,9.900359,-1.094317,-0.845538,0.089766,-1.112680,1.671952,-0.280029,-0.681152,0.753174
806,3144929499,9.824972,-1.126785,-0.825167,0.056918,-1.276793,1.929296,-0.280029,-0.679443,0.747070
807,3144946166,9.725169,-1.195789,-0.881510,0.445232,-1.357601,1.971519,-0.276611,-0.679443,0.753174
808,3144962833,9.864686,-1.126686,-0.845604,0.705214,-1.500699,2.281137,-0.278320,-0.679443,0.752441
809,3144979500,9.897718,-1.023499,-0.804483,0.216459,-1.452688,2.761722,-0.280029,-0.681152,0.753174
810,3144996167,9.805473,-1.143305,-0.854528,0.148150,-1.509881,3.333320,-0.278320,-0.678467,0.749756
811,3145012834,9.728047,-1.207119,-0.884412,0.612854,-1.504080,3.454302,-0.275635,-0.675049,0.754883
812,3145029501,9.779341,-1.177098,-0.897040,0.285601,-1.919172,3.745966,-0.274658,-0.679443,0.750488
813,3145046168,9.896221,-1.176476,-0.866236,-0.008030,-2.081224,3.899860,-0.277344,-0.675781,0.754883
814,3145062835,9.851737,-1.170051,-0.830026,-0.483670,-2.092199,4.109206,-0.279297,-0.677734,0.752197
815,3145079502,9.781792,-1.290921,-0.877560,-0.389223,-2.053280,4.424523,-0.280029,-0.679199,0.756592
816,3145096169,9.819531,-1.218341,-0.918465,-0.023359,-1.900783,4.547606,-0.281738,-0.677734,0.750488
817,3145112836,9.864307,-1.217309,-0.926969,-0.403592,-1.922553,4.677757,-0.287109,-0.674072,0.753174
818,3145129503,9.868385,-1.349007,-0.961111,-0.602091,-2.028218,4.398526,-0.280029,-0.680420,0.748779
819,3145146170,9.822404,-1.372849,-0.994288,-0.827982,-1.654850,4.214025,-0.283691,-0.673096,0.758301
820,3145162837,9.768112,-1.476396,-0.958899,0.018486,-1.557726,3.772783,-0.282715,-0.681152,0.754883
821,3145179504,9.867864,-1.317031,-0.911652,0.810738,-1.737758,3.549799,-0.281006,-0.679443,0.754150
822,3145196171,9.848412,-1.315075,-0.933536,-1.547225,-1.427691,3.339608,-0.280029,-0.675781,0.754883
823,3145212838,9.846101,-1.485155,-0.934350,-1.895442,-1.400964,2.881858,-0.285400,-0.675781,0.754883
824,3145229505,9.789001,-1.444214,-0.994600,-1.118827,-1.343015,2.457301,-0.285400,-0.678467,0.752197
825,3145246172,9.812090,-1.385384,-0.951952,-0.080142,-1.098964,2.298375,-0.288086,-0.679199,0.752197
826,3145262839,9.817431,-1.318379,-0.938559,-0.621159,-1.142019,2.159541,-0.285400,-0.677490,0.753174
827,3145279506,9.829444,-1.462662,-0.955538,-0.608045,-1.090870,1.978267,-0.285400,-0.676758,0.748779
828,3145296173,9.816478,-1.447570,-0.981889,0.385401,-0.783377,1.739595,-0.286133,-0.675781,0.754150
829,3145312840,9.836574,-1.457371,-1.011070,0.391650,-0.380208,1.344443,-0.287109,-0.677490,0.753174
830,3145329507,9.818377,-1.440171,-1.039898,-0.156340,-0.467368,0.985353,-0.281738,-0.677734,0.750488
831,3145346174,9.795574,-1.470660,-0.996718,-0.696345,-0.325614,0.646855,-0.285400,-0.679199,0.754883
832,3145362841,9.759670,-1.502855,-0.958084,0.645549,-0.027060,0.462328,-0.288086,-0.680176,0.751465
833,3145379508,9.811000,-1.390866,-0.922185,0.974608,0.151979,0.227614,-0.283691,-0.674072,0.750488
834,3145396175,9.862204,-1.443558,-0.906844,0.822507,0.115597,-0.014753,-0.288086,-0.675781,0.752197
835,3145412842,9.858847,-1.428466,-0.936067,1.066020,0.234439,-0.181402,-0.289795,-0.675781,0.749756
836,3145429509,9.800976,-1.365372,-0.939240,0.987248,0.113535,-0.348832,-0.284424,-0.676758,0.754883
837,3145446176,9.796609,-1.347951,-0.989880,0.156449,-0.025472,-0.314293,-0.288086,-0.677490,0.753174
838,3145462843,9.724959,-1.398372,-0.978229,-0.289795,0.162519,-0.200048,-0.290527,-0.673096,0.752197
839,3145479510,9.799524,-1.370621,-0.959990,-0.008286,0.147113,-0.336999,-0.287109,-0.675781,0.751465
840,3145496177,9.890432,-1.331775,-0.890687,-0.907612,0.248936,-0.190661,-0.287109,-0.679199,0.754883
841,3145512844,9.822844,-1.338403,-0.848448,-0.612669,0.150327,-0.046692,-0.288086,-0.677490,0.752197
842,3145529511,9.827908,-1.325238,-0.842948,-0.670143,-0.166739,0.214705,-0.287109,-0.681152,0.751465
843,3145546178,9.745810,-1.319358,-0.841709,-0.817109,-0.425760,0.383531,-0.286133,-0.676758,0.752197
844,3145562845,9.690156,-1.427179,-0.973236,-0.229080,-0.441000,0.618643,-0.287109,-0.680908,0.754883
845,3145579512,9.828187,-1.428823,-1.002709,0.522954,-0.452167,0.488902,-0.287109,-0.679443,0.748779
846,3145596179,9.886016,-1.300905,-0.912409,-0.895305,-0.621710,0.554176,-0.287109,-0.676758,0.750488
847,3145612846,9.807565,-1.484721,-0.902701,-1.046958,-0.538033,0.518023,-0.290527,-0.678467,0.752197
848,3145629513,9.783087,-1.475304,-0.960555,0.107759,-0.531720,0.280529,-0.287109,-0.680176,0.751465
849,3145646180,9.775579,-1.420137,-0.961535,0.807959,0.036428,0.228164,-0.288086,-0.680176,0.753174
850,3145662847,9.707517,-1.511730,-0.956815,1.052906,0.151890,-0.053185,-0.287109,-0.678467,0.750488
851,3145679514,9.845809,-1.433221,-0.947315,1.181482,0.093582,-0.675868,-0.284424,-0.672363,0.753174
852,3145696181,9.909002,-1.337359,-0.886025,-0.031721,-0.243923,-0.831516,-0.286133,-0.680176,0.751465
853,3145712848,9.850963,-1.435963,-0.836446,-0.020272,-0.351201,-0.990891,-0.288818,-0.679199,0.754150
854,3145729515,9.776437,-1.354669,-0.910190,1.186015,-0.569422,-0.971426,-0.287109,-0.672363,0.752197
855,3145746182,9.740072,-1.319916,-0.959938,0.800224,-0.634273,-0.734905,-0.288818,-0.677490,0.752197
856,3145762849,9.746161,-1.325323,-0.982507,0.651734,-0.115424,-0.542362,-0.291504,-0.681152,0.748047
857,3145779516,9.850620,-1.291161,-0.971387,0.197519,-0.318353,-0.335078,-0.285400,-0.681152,0.748779
858,3145796183,9.892225,-1.342540,-0.897317,-0.109481,-0.199689,-0.136708,-0.284424,-0.677490,0.749756
859,3145812850,9.818921,-1.329838,-0.874747,0.379791,-0.270227,0.070339,-0.284424,-0.681152,0.751465
860,3145829517,9.782887,-1.359687,-0.959944,0.926802,-0.275234,0.173609,-0.286133,-0.678467,0.754150
861,3145846184,9.784203,-1.371529,-0.996349,0.366230,-0.163319,0.251472,-0.288086,-0.675781,0.749756
862,3145862851,9.836041,-1.358229,-0.955980,1.178792,-0.109725,0.257350,-0.284424,-0.679443,0.750488
863,3145879518,9.880283,-1.244115,-0.899474,0.724615,-0.061829,0.518395,-0.281006,-0.676025,0.748779
864,3145896185,9.840786,-1.261145,-0.852490,-0.103757,-0.474526,0.895106,-0.288818,-0.677490,0.754150
865,3145912852,9.804437,-1.312878,-0.888995,-0.258906,-0.530362,1.255067,-0.285400,-0.677490,0.751465
866,3145929519,9.783404,-1.323616,-0.891969,-0.110980,-0.525573,1.449327,-0.286133,-0.679443,0.748779
867,3145946186,9.758881,-1.337726,-0.964340,-0.994247,-0.553234,1.669352,-0.288818,-0.681885,0.750488
868,3145962853,9.756321,-1.407775,-0.985635,-0.930010,-0.487371,1.765810,-0.286133,-0.680176,0.750488
869,3145979520,9.874435,-1.442684,-0.914094,-0.396728,-0.384575,1.817227,-0.288086,-0.679199,0.755859
870,3145996187,9.846758,-1.445582,-0.879712,0.617618,-0.487320,1.722793,-0.289795,-0.678467,0.752197
871,3146012854,9.788241,-1.433858,-0.914734,1.122137,-0.039815,1.475336,-0.290527,-0.676758,0.748779
872,3146029521,9.806911,-1.468486,-0.927123,0.303619,-0.488703,1.118180,-0.289795,-0.678223,0.754150
873,3146046188,9.798815,-1.435869,-0.912634,-0.238121,-0.414542,0.824057,-0.285400,-0.679443,0.746094
874,3146062855,9.836368,-1.428566,-0.904855,0.070672,-0.062892,0.789326,-0.293213,-0.675781,0.748779
875,3146079522,9.789992,-1.373557,-0.888473,0.064781,-0.288578,0.730545,-0.288818,-0.678467,0.746094
876,3146096189,9.776707,-1.430115,-0.918567,-0.145595,-0.410021,0.677795,-0.286133,-0.677490,0.755859
877,3146112856,9.790862,-1.453650,-0.915266,0.341449,-0.440423,0.606553,-0.291504,-0.680908,0.750488
878,3146129523,9.790762,-1.406980,-0.924786,0.313480,-0.378812,0.545595,-0.289795,-0.674072,0.752197
879,3146146190,9.814030,-1.465417,-0.919028,0.704164,-0.278986,0.583028,-0.293213,-0.677490,0.754150
880,3146162857,9.798958,-1.421423,-0.912786,0.773241,0.092097,0.582042,-0.293213,-0.676514,0.752197
881,3146179524,9.798422,-1.438220,-0.896640,0.903622,-0.176958,0.401524,-0.288086,-0.680908,0.752441
882,3146196191,9.798089,-1.487709,-0.931398,0.717303,-0.298746,0.221428,-0.290527,-0.678467,0.751465
883,3146212858,9.825312,-1.529200,-0.929580,1.050473,-0.390453,-0.168135,-0.288818,-0.678467,0.750488
884,3146229525,9.811049,-1.452660,-0.884762,1.650156,-0.147119,-0.401543,-0.288818,-0.680176,0.754883
885,3146246192,9.807181,-1.371449,-0.874429,0.952530,-0.067950,-0.515302,-0.294189,-0.679932,0.752197
886,3146262859,9.832725,-1.339386,-0.920537,0.649224,-0.025894,-0.428398,-0.294922,-0.677490,0.753174
887,3146279526,9.802345,-1.325950,-0.907842,0.270092,-0.129280,-0.075865,-0.287109,-0.679199,0.749756
888,3146296193,9.765839,-1.381403,-0.894302,0.038182,-0.104769,0.129402,-0.288086,-0.681152,0.750488
889,3146312860,9.763602,-1.379737,-0.897699,0.011801,-0.398277,0.224412,-0.295898,-0.675781,0.749756
890,3146329527,9.809876,-1.418785,-0.882794,-0.125579,-0.252567,0.213437,-0.293213,-0.679199,0.748779
891,3146346194,9.858665,-1.445453,-0.865278,-0.160451,-0.273134,0.171099,-0.295898,-0.676514,0.750488
892,3146362861,9.838605,-1.382673,-0.888805,-0.233242,-0.461618,0.200170,-0.290527,-0.673096,0.753174
893,3146379528,9.817512,-1.394056,-0.905578,0.110692,-0.642418,0.265597,-0.288086,-0.678467,0.751465
894,3146396195,9.794766,-1.379468,-0.938626,0.179039,-0.403528,0.343024,-0.293213,-0.677490,0.752197
895,3146412862,9.755454,-1.396019,-0.974849,0.182843,-0.564683,0.270425,-0.291504,-0.678467,0.749756
896,3146429529,9.810111,-1.439985,-0.935041,-0.034756,-0.810450,0.253739,-0.290527,-0.680176,0.748779
897,3146446196,9.848111,-1.375340,-0.856305,-0.072599,-0.874558,0.394762,-0.292480,-0.674072,0.751465
898,3146462863,9.805717,-1.417544,-0.854960,0.093326,-0.540594,0.392252,-0.294189,-0.679932,0.752197
899,3146479530,9.771428,-1.453914,-0.935454,0.312558,-0.484887,0.430069,-0.290527,-0.674805,0.750488
900,3146496197,9.818045,-1.426567,-0.946032,0.011635,-0.297031,0.265469,-0.293213,-0.677490,0.751465
901,3146512864,9.813884,-1.469678,-0.954443,0.203640,-0.532987,0.126930,-0.288818,-0.681152,0.747070
902,3146529531,9.800138,-1.413968,-0.908900,-0.084893,-0.673102,0.043689,-0.291504,-0.676514,0.751465
903,3146546198,9.844144,-1.416253,-0.867788,-0.267755,-0.378376,-0.027278,-0.292480,-0.674805,0.752197
904,3146562865,9.833779,-1.377648,-0.881803,0.185045,-0.507029,0.070966,-0.289795,-0.680176,0.748779
905,3146579532,9.806719,-1.413818,-0.899309,0.342845,-0.540774,0.183252,-0.291504,-0.680176,0.752197
906,3146596199,9.742844,-1.377948,-0.908600,0.124087,-0.437798,0.262729,-0.289795,-0.675781,0.748779
907,3146612866,9.756827,-1.425244,-0.937066,0.109411,-0.492737,0.266916,-0.290527,-0.677490,0.747070
908,3146629533,9.839311,-1.459346,-0.942273,-0.107240,-0.662280,0.221339,-0.292480,-0.680176,0.753174
909,3146646200,9.842319,-1.392328,-0.896437,0.084490,-0.510845,0.287829,-0.288818,-0.677490,0.754150
910,3146662867,9.801955,-1.456721,-0.891924,0.353410,-0.508668,0.274382,-0.286133,-0.678467,0.748779
911,3146679534,9.794082,-1.457592,-0.931345,0.846096,-0.221230,0.138072,-0.286133,-0.678467,0.750488
912,3146696201,9.794466,-1.472839,-0.935457,0.638070,-0.253041,-0.062072,-0.294189,-0.678223,0.751465
913,3146712868,9.795171,-1.448757,-0.941898,0.339144,-0.580256,-0.284698,-0.291504,-0.681885,0.752441
914,3146729535,9.844772,-1.453380,-0.904935,0.512990,-0.557230,-0.426861,-0.291504,-0.681152,0.748047
915,3146746202,9.869906,-1.407270,-0.917930,0.349184,-0.166419,-0.554348,-0.289795,-0.676758,0.750488
916,3146762869,9.805490,-1.393553,-0.917778,0.726472,0.064051,-0.523664,-0.288818,-0.680176,0.749756
917,3146779536,9.788507,-1.373966,-0.941108,0.770385,-0.085521,-0.450118,-0.293213,-0.676514,0.747803
918,3146796203,9.786900,-1.426209,-0.893819,0.565394,-0.036255,-0.343543,-0.291504,-0.677490,0.753174
919,3146812870,9.788490,-1.396634,-0.914333,0.590225,-0.159209,-0.372831,-0.291504,-0.679199,0.751465
920,3146829537,9.816365,-1.386582,-0.890949,0.755030,-0.300219,-0.279627,-0.290527,-0.676758,0.747803
921,3146846204,9.780291,-1.319256,-0.879650,0.163748,-0.238416,-0.010194,-0.289795,-0.678467,0.751465
922,3146862871,9.790175,-1.373546,-0.922043,0.080264,-0.338164,0.009573,-0.292480,-0.684570,0.749756
923,3146879538,9.799825,-1.414569,-0.884235,0.309164,-0.364930,0.098782,-0.288086,-0.679199,0.749756
924,3146896205,9.809866,-1.425476,-0.867142,0.909334,-0.385510,0.064230,-0.293213,-0.681885,0.748779
925,3146912872,9.856361,-1.341191,-0.857695,0.574717,-0.593011,0.245158,-0.290527,-0.681885,0.749756
926,3146929539,9.818746,-1.374483,-0.842658,-0.408625,-0.382270,0.384491,-0.292480,-0.680908,0.748047
927,3146946206,9.818685,-1.371497,-0.924671,-0.195118,-0.419408,0.438752,-0.294189,-0.677490,0.749756
928,3146962873,9.781433,-1.399645,-0.935400,-0.678365,-0.422558,0.428827,-0.291504,-0.678467,0.751465
929,3146979540,9.774346,-1.412831,-0.946533,-0.467278,-0.305419,0.511543,-0.290527,-0.678467,0.748779
930,3146996207,9.813384,-1.413481,-0.930177,-0.785490,-0.272686,0.291223,-0.288818,-0.679199,0.749756
931,3147012874,9.816623,-1.459172,-0.910232,-1.051773,-0.149284,0.151134,-0.293213,-0.676514,0.747803
932,3147029541,9.804416,-1.476294,-0.891677,-0.387418,-0.041621,-0.093192,-0.291504,-0.679199,0.751465
933,3147046208,9.795829,-1.454429,-0.922275,0.327631,-0.247086,-0.213559,-0.290527,-0.678467,0.748779
934,3147062875,9.825144,-1.445643,-0.933046,0.827002,-0.133020,-0.146492,-0.291504,-0.679199,0.746094
935,3147079542,9.853266,-1.380449,-0.912311,1.223717,0.145551,-0.407946,-0.289795,-0.684570,0.747070
936,3147096209,9.833458,-1.340988,-0.865811,0.509673,0.055471,-0.195783,-0.291504,-0.678467,0.748047
937,3147112876,9.782171,-1.364620,-0.853952,0.535414,-0.123773,-0.023384,-0.292480,-0.679199,0.749756
938,3147129543,9.778059,-1.384979,-0.923910,0.549284,-0.017532,0.112549,-0.293213,-0.679199,0.748779
939,3147146210,9.788588,-1.395622,-0.938600,0.475353,0.241329,0.240138,-0.289795,-0.678467,0.748047
940,3147162877,9.808084,-1.426731,-0.877008,0.548682,0.256582,0.312520,-0.291504,-0.679199,0.749756
941,3147179544,9.822515,-1.375334,-0.878864,0.337979,-0.008081,0.248334,-0.293213,-0.681885,0.748047
942,3147196211,9.810592,-1.402152,-0.886741,0.485047,-0.092065,0.375181,-0.291504,-0.681152,0.747070
943,3147212878,9.805781,-1.417373,-0.870677,0.698964,-0.288437,0.250691,-0.292480,-0.682861,0.745361
944,3147229545,9.801740,-1.443236,-0.874758,0.850707,-0.264746,0.113778,-0.288818,-0.677490,0.748779
945,3147246212,9.820540,-1.458907,-0.896870,0.521711,0.168768,-0.065543,-0.290527,-0.678467,0.750488
946,3147262879,9.813034,-1.394153,-0.935332,0.660955,0.386528,-0.132059,-0.294189,-0.681885,0.749756
947,3147279546,9.805135,-1.363755,-0.867903,0.134563,0.377179,-0.087045,-0.288086,-0.680176,0.746094
948,3147296213,9.828719,-1.389557,-0.881367,0.569415,0.329206,-0.091360,-0.293213,-0.677490,0.749756
949,3147312880,9.811593,-1.343867,-0.862403,0.671213,0.049349,0.188413,-0.291504,-0.680908,0.750488
950,3147329547,9.824170,-1.361609,-0.847239,0.346482,-0.045040,0.236335,-0.293213,-0.680908,0.748779
951,3147346214,9.795658,-1.361330,-0.839891,0.311380,-0.052903,0.457155,-0.290527,-0.674072,0.752197
952,3147362881,9.792728,-1.414390,-0.890097,0.099640,-0.121071,0.540895,-0.294189,-0.680176,0.748047
953,3147379548,9.809433,-1.439491,-0.854438,0.289840,0.030550,0.446026,-0.289795,-0.680176,0.744385
954,3147396215,9.804201,-1.412845,-0.845630,0.567443,0.018883,0.489568,-0.290527,-0.681152,0.748047
955,3147412882,9.778642,-1.386142,-0.827824,0.057289,-0.121955,0.344805,-0.292480,-0.677490,0.746094
956,3147429549,9.816120,-1.449046,-0.863472,-0.407895,-0.332414,0.222197,-0.293213,-0.679199,0.747070
957,3147446216,9.826921,-1.464257,-0.878027,0.142579,-0.131406,0.038451,-0.293213,-0.680176,0.744385
958,3147462883,9.823755,-1.433977,-0.874497,0.614263,-0.421956,-0.020068,-0.300293,-0.680908,0.748047
959,3147479550,9.801591,-1.390795,-0.859855,0.961302,-0.282239,0.001697,-0.293213,-0.678467,0.745361
960,3147496217,9.788748,-1.395775,-0.854839,0.380176,-0.304804,0.019370,-0.295898,-0.676514,0.747803
961,3147512884,9.804169,-1.428316,-0.842118,0.344817,-0.277898,0.066548,-0.294189,-0.679199,0.748047
962,3147529551,9.827650,-1.429532,-0.892596,0.732184,-0.205580,0.099115,-0.291504,-0.680176,0.748047
963,3147546218,9.806579,-1.384622,-0.873782,0.464787,0.192127,0.100139,-0.295898,-0.677490,0.747070
964,3147562885,9.758636,-1.377784,-0.878606,-0.058576,-0.147094,0.029474,-0.295898,-0.678467,0.743652
965,3147579552,9.790948,-1.418689,-0.834579,0.117671,-0.513816,-0.074956,-0.295898,-0.678467,0.746094
966,3147596219,9.821155,-1.441967,-0.847930,0.596834,-0.777397,-0.223215,-0.291504,-0.678467,0.749756
967,3147612886,9.810220,-1.394302,-0.807796,1.281871,-0.707794,-0.148374,-0.292480,-0.678467,0.748047
968,3147629553,9.809389,-1.351721,-0.811190,1.140284,-0.679428,0.095375,-0.296875,-0.680908,0.747070
969,3147646220,9.782933,-1.357113,-0.880276,-0.046180,-0.634478,0.122550,-0.296875,-0.675781,0.748779
970,3147662887,9.799044,-1.383338,-0.898172,-0.202929,-0.433495,0.368010,-0.291504,-0.679199,0.748047
971,3147679554,9.797400,-1.400869,-0.898991,0.071696,-0.818467,0.409848,-0.291504,-0.679199,0.750488
972,3147696221,9.829413,-1.411687,-0.821240,0.236834,-0.993184,0.407786,-0.293213,-0.679443,0.743652
973,3147712888,9.808455,-1.403504,-0.830722,-0.041467,-0.994195,0.424524,-0.288818,-0.676758,0.747803
974,3147729555,9.821865,-1.412705,-0.850269,-0.194400,-0.873073,0.353641,-0.294189,-0.677490,0.748779
975,3147746222,9.783616,-1.416972,-0.842254,-0.136439,-0.730628,0.359775,-0.291504,-0.679199,0.746094
976,3147762889,9.789802,-1.407111,-0.860937,-0.414631,-0.868962,0.460318,-0.295898,-0.681641,0.754150
977,3147779556,9.790808,-1.447580,-0.850079,-0.100991,-1.218729,0.302159,-0.292480,-0.683594,0.748047
978,3147796223,9.826993,-1.465209,-0.870111,0.220545,-1.483628,0.222145,-0.294189,-0.680908,0.749756
979,3147812890,9.841113,-1.422784,-0.894613,1.058169,-1.361981,0.149098,-0.291504,-0.680176,0.744385
980,3147829557,9.792824,-1.326650,-0.904008,0.317770,-1.467441,0.235477,-0.288086,-0.681152,0.748047
981,3147846224,9.780645,-1.383240,-0.875282,-0.520091,-1.428587,0.249116,-0.295898,-0.674805,0.749756
982,3147862891,9.792223,-1.438082,-0.885737,-0.737249,-1.307477,0.276163,-0.294189,-0.681885,0.749756
983,3147879558,9.775999,-1.358814,-0.875935,-0.381040,-1.184485,0.318603,-0.291504,-0.677490,0.748779
984,3147896225,9.778217,-1.393963,-0.881952,-0.459774,-1.220087,0.416034,-0.292480,-0.681152,0.747070
985,3147912892,9.785645,-1.416438,-0.872950,-0.471030,-1.477084,0.308575,-0.294189,-0.675781,0.749756
986,3147929559,9.807870,-1.446232,-0.895650,-0.529722,-1.752651,0.308972,-0.292480,-0.681152,0.747070
987,3147946226,9.815254,-1.475659,-0.912105,-0.022629,-1.585003,0.224220,-0.293213,-0.683594,0.749756
988,3147962893,9.799076,-1.462302,-0.930694,0.871683,-1.599206,0.237641,-0.292480,-0.678467,0.748779
989,3147979560,9.817922,-1.471803,-0.934072,0.890432,-1.338443,-0.119291,-0.294189,-0.681885,0.747070
990,3147996227,9.834752,-1.498946,-0.965145,0.965477,-1.003979,-0.331095,-0.293213,-0.680176,0.750488
991,3148012894,9.850482,-1.505011,-0.989231,0.955232,-0.878746,-0.912043,-0.289795,-0.679199,0.748047
992,3148029561,9.826332,-1.429858,-0.984409,1.173363,-0.845450,-1.252397,-0.290527,-0.680908,0.751465
993,3148046228,9.800830,-1.380951,-0.919142,1.373769,-0.769738,-1.243227,-0.290527,-0.679199,0.748047
994,3148062895,9.814097,-1.359240,-0.894385,1.846528,-0.794916,-1.169194,-0.286133,-0.680176,0.752197
995,3148079562,9.824646,-1.294840,-0.899913,1.430092,-0.683987,-0.865171,-0.288818,-0.684570,0.752441
996,3148096229,9.783434,-1.341296,-0.861109,1.042033,-0.850931,-0.557038,-0.287109,-0.680908,0.754150
997,3148112896,9.783713,-1.316322,-0.873656,1.002769,-1.031411,-0.188151,-0.291504,-0.678467,0.748047
998,3148129563,9.820940,-1.322021,-0.867813,0.688296,-1.181373,0.100498,-0.288086,-0.684570,0.750488
999,3148146230,9.819982,-1.294427,-0.902223,0.065268,-1.209713,0.472202,-0.285400,-0.677490,0.751465
1000,3148162897,9.794986,-1.294253,-0.901441,-0.542080,-1.126434,0.852692,-0.291504,-0.679199,0.753174
1001,3148179564,9.767509,-1.331673,-0.925718,-0.452884,-1.467492,1.131025,-0.285400,-0.680176,0.749756
1002,3148196231,9.806149,-1.380472,-0.986304,-0.275657,-1.509869,1.307214,-0.288086,-0.677490,0.753174
1003,3148212898,9.825930,-1.401251,-0.958560,-0.142906,-1.454660,1.431410,-0.287109,-0.679443,0.748047
1004,3148229565,9.804658,-1.418981,-0.934722,-0.807325,-1.447041,1.360002,-0.286133,-0.677490,0.748779
1005,3148246232,9.799790,-1.445026,-0.942300,-0.934928,-1.381792,1.204482,-0.288818,-0.677490,0.750488
1006,3148262899,9.794563,-1.490602,-0.949583,-0.574749,-1.186150,1.048667,-0.291504,-0.678467,0.749756
1007,3148279566,9.792951,-1.514280,-0.941708,-0.223893,-1.102627,0.778748,-0.292480,-0.680176,0.748779
1008,3148296233,9.777802,-1.537029,-0.950336,0.623881,-1.200019,0.475391,-0.290527,-0.680176,0.747070
1009,3148312900,9.812304,-1.531511,-0.976065,0.910794,-1.184895,0.012890,-0.290527,-0.677490,0.749756
1010,3148329567,9.821910,-1.485944,-0.953726,1.242146,-1.197202,-0.362791,-0.288086,-0.676758,0.752197
1011,3148346234,9.800403,-1.456280,-0.990906,1.247499,-1.078999,-0.566335,-0.289795,-0.680908,0.751465
1012,3148362901,9.773038,-1.437976,-0.942228,0.551230,-0.990405,-0.814817,-0.290527,-0.677490,0.750488
1013,3148379568,9.780845,-1.423428,-0.951244,0.637250,-1.109004,-0.999279,-0.288086,-0.681885,0.748779
1014,3148396235,9.796569,-1.419968,-0.976249,0.861464,-1.138369,-0.939935,-0.285400,-0.681152,0.751465
1015,3148412902,9.816045,-1.428027,-0.980146,1.273252,-0.917664,-0.977150,-0.285400,-0.681885,0.754150
1016,3148429569,9.832907,-1.432909,-1.011044,1.408269,-0.843093,-0.992518,-0.283691,-0.677490,0.753174
1017,3148446236,9.810486,-1.393910,-0.985820,1.507198,-0.792559,-1.073531,-0.288818,-0.683594,0.750488
1018,3148462903,9.832841,-1.378237,-0.975145,1.284598,-0.467726,-1.054526,-0.286133,-0.679199,0.752197
1019,3148479570,9.820458,-1.432162,-0.953419,1.024399,-0.320172,-1.138062,-0.282715,-0.680176,0.754150
1020,3148496237,9.811948,-1.363947,-0.960787,0.299918,-0.500984,-1.321141,-0.286133,-0.677490,0.754883
1021,3148512904,9.792168,-1.385371,-0.948383,-0.090695,-0.537009,-1.427242,-0.282715,-0.680176,0.755859
1022,3148529571,9.805322,-1.371541,-0.963793,0.412409,-0.704554,-1.487086,-0.284424,-0.678467,0.751465
1023,3148546238,9.810810,-1.386678,-0.950693,0.287150,-0.672244,-1.532177,-0.281738,-0.678467,0.752197
1024,3148562905,9.813926,-1.345842,-0.985921,0.574474,-0.689712,-1.276537,-0.280029,-0.681152,0.756592
1025,3148579572,9.807573,-1.355726,-0.996378,0.961802,-0.641521,-1.159986,-0.285400,-0.683594,0.752441
1026,3148596239,9.802006,-1.349535,-0.956207,0.891456,-0.395089,-1.028952,-0.281738,-0.677490,0.753174
1027,3148612906,9.793769,-1.367816,-0.962208,1.177986,-0.513086,-0.914399,-0.285400,-0.681152,0.753174
1028,3148629573,9.830031,-1.386514,-0.961050,1.115811,-0.191340,-0.866017,-0.281006,-0.681885,0.758545
1029,3148646240,9.794426,-1.338698,-0.954056,1.015934,-0.195963,-0.982695,-0.279297,-0.681885,0.754150
1030,3148662907,9.855519,-1.393049,-0.978503,0.660379,-0.237020,-1.184177,-0.280029,-0.679443,0.750488
1031,3148679574,9.866065,-1.421905,-1.001266,1.204059,-0.157441,-1.549748,-0.280029,-0.676758,0.749756
1032,3148696241,9.886597,-1.327010,-0.939122,1.271075,-0.041275,-1.560812,-0.286133,-0.677490,0.751465
1033,3148712908,9.834824,-1.350409,-0.940251,-0.071114,0.112408,-1.750141,-0.283691,-0.680176,0.753174
1034,3148729575,9.892476,-1.469721,-0.953445,0.321010,0.089472,-2.046826,-0.283691,-0.681152,0.750488
1035,3148746242,9.866727,-1.400818,-0.923158,1.331739,0.134652,-2.385324,-0.285400,-0.683594,0.755859
1036,3148762909,9.818586,-1.382694,-0.941215,2.041172,0.351656,-2.637468,-0.279297,-0.682861,0.754883
1037,3148779576,9.807190,-1.310925,-0.922290,3.403627,0.412550,-2.607846,-0.281006,-0.675049,0.753174
1038,3148796243,9.721085,-1.201841,-0.935616,3.210315,0.595002,-2.003349,-0.281006,-0.677490,0.756592
1039,3148812910,9.726567,-1.070147,-0.929688,2.660987,0.285281,-1.079780,-0.280029,-0.679443,0.754150
1040,3148829577,9.644058,-0.952662,-0.937206,0.510211,-0.412595,0.003131,-0.280029,-0.682861,0.757568
1041,3148846244,9.709051,-1.124639,-0.780444,-0.613988,-1.232867,1.007008,-0.281738,-0.680176,0.752441
1042,3148862911,9.842775,-1.234369,-0.667315,0.318744,-1.860622,1.357838,-0.279053,-0.682129,0.751465
1043,3148879578,9.811194,-1.402009,-0.725142,1.292398,-2.250191,1.500936,-0.278320,-0.677734,0.754883
1044,3148896245,9.847895,-1.246303,-0.768475,3.023265,-2.973993,1.570603,-0.284424,-0.675781,0.757568
1045,3148912912,9.730353,-1.058786,-0.833730,0.613674,-3.926042,1.979766,-0.279297,-0.676758,0.757568
1046,3148929579,9.832066,-1.061704,-1.041373,-3.707836,-4.499063,2.906395,-0.281006,-0.680908,0.759277
1047,3148946246,9.761935,-1.119887,-1.165950,-6.273947,-4.488690,3.614049,-0.277344,-0.681152,0.754150
1048,3148962913,9.820508,-1.293971,-1.076149,-4.964242,-4.253118,4.438880,-0.277344,-0.681152,0.756592
1049,3148979580,9.832122,-1.293412,-1.060686,-3.619703,-3.552764,4.704139,-0.283691,-0.681152,0.754883
1050,3148996247,9.793554,-1.510659,-1.124444,-3.582654,-2.762369,4.707020,-0.277344,-0.679443,0.752441
1051,3149012914,9.776165,-1.698794,-1.168458,0.230713,-1.816171,4.444502,-0.280029,-0.677490,0.756592
1052,3149029581,9.898530,-1.296370,-1.073925,1.143165,-2.031266,3.992168,-0.280029,-0.681152,0.753174
1053,3149046248,9.907216,-1.421435,-0.968045,-1.498586,-2.265251,3.476675,-0.282715,-0.679199,0.754150
1054,3149062915,9.820256,-1.724229,-1.022614,-0.959977,-2.250485,2.825177,-0.280029,-0.675781,0.753174
1055,3149079582,9.776098,-1.569855,-1.017477,0.381623,-1.911104,1.738007,-0.285400,-0.679199,0.754150
1056,3149096249,9.759913,-1.474642,-1.062452,-0.289808,-1.652083,1.266490,-0.279297,-0.678467,0.755859
1057,3149112916,9.784439,-1.443692,-1.163800,-1.290176,-1.761398,0.869045,-0.278320,-0.678467,0.754883
1058,3149129583,9.790741,-1.518278,-1.109264,-1.270006,-1.426704,0.528038,-0.279297,-0.678467,0.754883
1059,3149146250,9.831790,-1.488765,-1.084457,0.059722,-1.554230,0.611548,-0.281738,-0.677734,0.750488
1060,3149162917,9.802895,-1.420578,-1.102845,1.514293,-1.090576,0.444143,-0.277344,-0.683838,0.756836
1061,3149179584,9.783346,-1.601178,-1.108499,1.077443,-1.260106,0.351118,-0.282715,-0.680176,0.754883
1062,3149196251,9.834794,-1.418312,-1.083990,1.752274,-1.122016,0.250627,-0.281006,-0.676758,0.758301
1063,3149212918,9.750371,-1.339277,-1.051233,0.909206,-0.762439,0.287253,-0.281738,-0.676758,0.753174
1064,3149229585,9.719446,-1.459212,-1.055631,0.838118,-0.994810,0.296781,-0.278320,-0.678467,0.758545
1065,3149246252,9.748062,-1.318104,-1.058135,2.494863,-0.587594,0.321830,-0.279297,-0.675049,0.757568
1066,3149262919,9.766738,-0.994763,-0.989757,-0.958811,-0.723008,1.030559,-0.275635,-0.682861,0.755859
1067,3149279586,9.816880,-1.338044,-0.998146,-4.162525,-1.077334,1.364971,-0.278320,-0.677734,0.753174
1068,3149296253,9.857474,-1.551013,-1.090239,-3.886996,-0.824486,1.272817,-0.281738,-0.679443,0.752197
1069,3149312920,9.875430,-1.822813,-1.183060,-1.711709,-0.638076,0.823980,-0.283691,-0.681152,0.754883
1070,3149329587,9.855019,-1.563736,-1.208790,-0.334835,0.190424,0.211298,-0.284424,-0.683594,0.754150
1071,3149346254,9.832818,-1.383660,-1.184018,-0.493109,0.359429,0.131015,-0.281738,-0.683838,0.752441
1072,3149362921,9.818359,-1.619146,-1.168157,0.244390,0.534198,-0.385766,-0.278320,-0.680176,0.755859
1073,3149379588,9.903201,-1.422315,-1.100761,1.988308,0.708262,-0.898301,-0.282715,-0.683838,0.748779
1074,3149396255,10.067218,-1.357497,-0.950885,0.360223,0.396132,-1.438127,-0.278320,-0.678467,0.753174
1075,3149412922,10.321722,-1.384105,-0.820355,0.088037,-0.231027,-2.813312,-0.284424,-0.678467,0.756592
1076,3149429589,10.708325,-1.170076,-0.928261,3.825123,-0.849099,-4.829607,-0.275635,-0.681152,0.752441
1077,3149446256,10.650584,-1.214469,-0.933802,4.836313,0.305271,-7.438020,-0.276611,-0.681152,0.755859
1078,3149462923,10.762368,-1.017702,-0.898787,1.605207,2.388226,-14.422701,-0.280029,-0.684570,0.755859
1079,3149479590,11.039411,-0.823584,-0.867429,1.704355,3.254732,-20.729490,-0.275635,-0.680176,0.756592
1080,3149496257,10.763077,2.119110,-1.379143,8.230374,4.092830,-33.397758,-0.272949,-0.683838,0.754883
1081,3149512924,11.148313,7.189067,-1.312377,10.799138,6.179599,-64.439629,-0.258057,-0.685791,0.757568
1082,3149529591,11.854329,7.665031,-0.962161,3.531984,12.390705,-95.213318,-0.251953,-0.692871,0.756836
1083,3149546258,11.839727,7.931630,-0.668197,0.099069,18.579586,-121.479805,-0.232422,-0.696533,0.758545
1084,3149562925,11.458405,7.765176,0.897729,8.964916,24.808958,-145.960419,-0.207031,-0.710205,0.758789
1085,3149579592,11.234727,6.967641,1.288212,36.143055,32.913166,-167.479645,-0.181396,-0.714844,0.765869
1086,3149596259,9.749723,5.553136,1.697696,69.151985,42.388203,-175.649689,-0.150635,-0.713135,0.781494
1087,3149612926,8.337589,5.099130,1.924338,97.737061,49.741512,-180.268112,-0.120605,-0.693115,0.802490
1088,3149629593,7.154056,4.667547,1.350869,111.479355,52.347717,-178.264984,-0.099609,-0.679199,0.819824
1089,3149646260,6.122619,4.112495,0.531019,116.657272,50.435959,-167.937561,-0.076660,-0.656250,0.846680
1090,3149662927,6.023345,3.012452,-0.166061,111.998070,42.826500,-153.359253,-0.061035,-0.627197,0.877197
1091,3149679594,6.354690,2.054585,-0.457435,105.446594,34.442078,-135.287003,-0.045166,-0.605957,0.902344
1092,3149696261,7.055737,2.306134,-0.534256,89.341217,23.907032,-115.782921,-0.027588,-0.575195,0.924072
1093,3149712928,7.101671,0.154577,-0.672962,72.332321,11.746206,-95.571075,-0.016357,-0.551514,0.939697
1094,3149729595,7.778646,-2.118973,-1.260099,54.002254,1.355569,-69.073792,-0.003174,-0.533203,0.951904
1095,3149746262,8.519910,-7.941263,-0.401587,17.515875,-5.494762,-25.639835,0.002197,-0.520020,0.960449
1096,3149762929,10.685967,-18.036053,-0.288563,-15.658976,-14.434857,45.516113,0.004883,-0.519043,0.965820
1097,3149779596,19.644964,4.762045,-1.560622,45.495594,-13.217351,67.161011,-0.001465,-0.513428,0.977051
1098,3149796263,17.889290,1.304307,2.259788,-1.094721,-8.664305,46.179089,-0.006592,-0.507324,0.977783
1099,3149812930,15.166546,-0.358307,1.514669,36.384415,0.694618,46.438274,-0.008545,-0.498291,0.981445
1100,3149829597,11.636539,1.067678,1.533869,23.772852,1.114935,37.749241,-0.019043,-0.489502,0.985596
1101,3149846264,9.721088,3.984097,0.649634,33.660759,-0.951660,33.371521,-0.020020,-0.477783,0.994385
1102,3149862931,9.796303,3.226419,-1.979150,12.850261,-2.974951,28.107414,-0.027100,-0.476074,0.997803
1103,3149879598,10.682422,3.161544,-3.837440,1.944014,-1.379259,22.440256,-0.027100,-0.469727,1.001221
1104,3149896265,10.497313,2.286370,-2.984776,-9.372902,-0.762363,16.393614,-0.027100,-0.475098,0.997803
1105,3149912932,10.812488,1.246393,-0.767449,-10.075953,1.668918,8.317569,-0.033936,-0.477539,0.996826
1106,3149929599,11.202103,1.655293,0.313186,-3.817868,3.930058,-0.678954,-0.033936,-0.480469,0.990723
1107,3149946266,11.497963,1.811555,0.333303,-17.524017,3.444420,-9.748527,-0.038330,-0.486328,0.993408
1108,3149962933,12.250992,-0.947451,-0.867929,-31.854038,5.795937,-23.964874,-0.035645,-0.496094,0.983887
1109,3149979600,13.188056,-1.053632,-1.868206,-33.625584,11.511944,-44.566322,-0.032227,-0.506836,0.978760
1110,3149996267,14.230565,-1.278648,-2.466879,-39.610207,13.205019,-67.864922,-0.024170,-0.520996,0.970947
1111,3150012934,14.566905,-0.921513,-1.541971,-35.822800,11.474763,-84.251297,-0.021729,-0.532715,0.966797
1112,3150029601,13.724555,0.335232,-0.174987,-19.844790,9.499759,-93.592377,-0.010010,-0.543457,0.948486
1113,3150046268,12.024584,1.444372,-0.278454,-7.424201,9.347923,-93.748421,0.000488,-0.548096,0.942383
1114,3150062935,9.288804,2.358199,-0.921114,16.834856,9.587188,-85.137329,0.010254,-0.551758,0.942383
1115,3150079602,6.312416,4.828562,-1.504054,39.446018,14.686570,-79.288857,0.019775,-0.542480,0.940674
1116,3150096269,3.800031,7.877840,-1.510829,48.865467,17.443592,-69.999260,0.026123,-0.534668,0.943115
1117,3150112936,2.596593,9.174837,-1.306239,46.783001,18.791201,-57.378635,0.031250,-0.523193,0.949951
1118,3150129603,1.390776,7.437421,-0.665323,34.447491,19.649555,-39.207260,0.032227,-0.516113,0.949219
1119,3150146270,0.360993,3.057374,0.007239,30.024569,16.836361,-11.386857,0.032959,-0.508301,0.948242
1120,3150162937,0.447830,-1.204854,-0.844862,67.380211,14.600488,21.232903,0.025146,-0.490479,0.956055
1121,3150179604,2.540583,9.907680,-0.580550,93.633751,16.233719,41.267185,0.022461,-0.466797,0.968018
1122,3150196271,6.565784,27.143826,4.810222,7.301654,20.038485,15.110537,0.010010,-0.454346,0.967041
1123,3150212938,5.318811,4.435402,1.883298,-63.470722,26.460773,2.542135,0.007324,-0.473633,0.966309
1124,3150229605,8.841572,1.438018,-1.474241,46.034698,12.750566,20.922043,-0.003174,-0.468994,0.965332
1125,3150246272,11.990901,9.412187,0.401237,14.561325,1.947292,16.883863,-0.001465,-0.458252,0.975830
1126,3150262939,12.521601,3.743715,0.026256,7.149028,-6.837493,24.706192,-0.002197,-0.457520,0.974854
1127,3150279606,10.519427,3.143127,1.134998,12.132710,-5.109811,24.389521,-0.006592,-0.453125,0.973145
1128,3150296273,8.877563,3.477161,0.622214,20.153736,0.074719,23.668720,-0.007568,-0.445068,0.982666
1129,3150312940,8.205975,6.144424,-0.779413,23.371365,0.637842,22.816256,-0.014648,-0.437012,0.980957
1130,3150329607,9.883653,5.173965,-3.155825,8.069816,-1.644723,22.307636,-0.014648,-0.439453,0.988770
1131,3150346274,10.545600,5.795461,-3.460535,-5.625341,-4.467146,23.542133,-0.018066,-0.432617,0.987793
1132,3150362941,11.837818,4.085515,-2.500535,-16.803940,-6.205604,23.316469,-0.021729,-0.436768,0.984375
1133,3150379608,12.245350,2.789335,-1.245299,-22.470007,-4.787670,20.216381,-0.023438,-0.448242,0.980225
1134,3150396275,11.530623,2.077694,-0.154007,-24.083317,-3.066988,15.507680,-0.028809,-0.452881,0.970459
1135,3150412942,10.544855,1.491529,0.647564,-22.775921,-1.785862,8.377579,-0.032227,-0.463135,0.970703
1136,3150429609,10.280806,1.259471,0.696589,-21.930323,0.618977,-2.603728,-0.027832,-0.468506,0.967041
1137,3150446276,9.953746,0.677519,-0.027611,-25.494019,4.396479,-16.440781,-0.029541,-0.479248,0.962891
1138,3150462943,10.557485,-0.471452,-0.678221,-27.276291,7.601694,-36.129910,-0.032227,-0.488037,0.958496
1139,3150479610,11.815422,-3.035300,-0.941783,-27.935692,12.381227,-61.866440,-0.026855,-0.499512,0.947998
1140,3150496277,13.539282,-3.508002,-0.606254,-25.940470,20.747437,-90.645279,-0.018799,-0.506836,0.942139
1141,3150512944,15.601821,-5.060974,-1.074201,-12.952471,28.773319,-118.028839,-0.011719,-0.517578,0.930664
1142,3150529611,17.167307,-3.823156,-1.385947,-0.259579,36.261360,-142.122879,0.001465,-0.518799,0.923828
1143,3150546278,17.986835,-2.478037,-1.589341,9.023385,38.304935,-161.938141,0.011963,-0.521484,0.922119
1144,3150562945,18.626211,-1.453777,-0.952322,15.479979,37.076229,-172.196304,0.028809,-0.520264,0.917725
1145,3150579612,16.168007,-0.696701,0.271680,31.015696,40.361099,-166.319839,0.049805,-0.518799,0.910645
1146,3150596279,14.272795,1.317062,1.707375,30.510864,46.205475,-152.096848,0.059570,-0.508545,0.907959
1147,3150612946,13.270366,2.473471,1.088665,29.990210,51.058773,-135.327576,0.069336,-0.506104,0.906250
1148,3150629613,12.701496,4.336499,-0.119701,33.666245,48.636063,-110.721863,0.074463,-0.493896,0.903564
1149,3150646280,8.533391,1.028331,-3.538706,11.318727,26.510645,-59.385250,0.071045,-0.493896,0.898438
1150,3150662947,8.909982,-4.180749,-2.465820,-10.529978,6.366996,9.944926,0.074707,-0.496826,0.890625
1151,3150679614,4.897633,-0.172333,-1.414019,-45.265011,-3.280797,60.738251,0.065918,-0.511719,0.876709
1152,3150696281,2.092616,-0.047673,-0.413838,-80.976273,-11.308404,117.716225,0.056152,-0.537354,0.860107
1153,3150712948,0.936850,-0.035691,0.522316,-91.319336,-24.154873,168.873306,0.039551,-0.568115,0.842041
1154,3150729615,1.337338,1.223931,1.432777,-90.555359,-45.152428,209.409607,0.010498,-0.591553,0.815918
1155,3150746282,1.255352,2.907578,2.290177,-105.982613,-73.448532,237.293259,-0.013184,-0.619385,0.803711
1156,3150762949,2.495019,-0.002404,3.107259,-110.418304,-109.846115,253.653061,-0.036133,-0.647705,0.771484
1157,3150779616,5.632076,2.334497,6.418249,-28.202108,-113.439835,253.590179,-0.065186,-0.661377,0.761963
1158,3150796283,5.727830,14.411359,8.521025,18.331627,-79.689316,241.005875,-0.092529,-0.655762,0.767334
1159,3150812950,2.755743,23.445274,10.976668,72.547997,-31.889299,199.757034,-0.133789,-0.646240,0.774902
1160,3150829617,5.467848,60.413342,12.296275,82.952324,6.362794,54.528725,-0.152344,-0.620361,0.790527
1161,3150846284,6.197427,51.134975,11.708360,7.326388,77.459320,-130.891357,-0.154297,-0.620117,0.793945
1162,3150862951,-7.920322,-21.692047,-13.680464,30.787157,39.852325,-129.200165,-0.140137,-0.624023,0.786133
1163,3150879618,8.772474,22.668964,-18.753256,163.726517,7.556417,-125.894455,-0.121582,-0.599121,0.828125
1164,3150896285,6.206482,5.435305,-10.172051,-77.109482,-45.632534,-121.907318,-0.085449,-0.611328,0.811523
1165,3150912952,9.897324,7.239198,2.558138,22.431810,-22.738234,-102.943306,-0.055664,-0.613525,0.814209
1166,3150929619,9.950257,4.917940,1.316971,95.177475,16.707039,-79.261711,-0.045898,-0.598633,0.823730
1167,3150946286,12.488041,12.755358,-1.746269,80.836411,27.936314,-50.781864,-0.038818,-0.580078,0.837646
1168,3150962953,12.710992,13.611609,2.811372,53.013580,17.407963,-22.100315,-0.037109,-0.563232,0.846191
1169,3150979620,13.482404,12.809994,7.822238,17.937143,4.785246,6.527873,-0.043457,-0.557861,0.852295
1170,3150996287,17.672428,14.177052,6.756556,-46.606350,-17.498184,31.756289,-0.041504,-0.563965,0.849854
1171,3151012954,20.223156,11.399822,6.737999,-104.736542,-42.496006,56.294128,-0.044189,-0.582764,0.832275
1172,3151029621,20.648758,6.591793,7.288758,-162.261703,-55.186573,81.371834,-0.047607,-0.615479,0.810791
1173,3151046288,23.316433,-0.587421,6.056113,-152.184525,-32.159283,103.927284,-0.061768,-0.647217,0.784668
1174,3151062955,21.661955,-2.342618,2.600227,-161.503265,-12.164460,115.020905,-0.078369,-0.683105,0.757812
1175,3151079622,16.389572,-11.877829,3.003379,-176.407120,10.388460,70.403069,-0.102051,-0.711426,0.717773
1176,3151096289,12.517655,-3.425591,7.470936,-98.223267,110.512367,-69.543343,-0.117676,-0.738770,0.690674
