#sep=,
#DeviceTag:,PiernaD
#FirmwareVersion:,2.2.1
#AppVersion:,2022.0.0
#SyncStatus:,Synced
#OutputRate:,60Hz
#FilterProfile:,Dynamic
#Measurement Mode:,Inertial data Mode - Rate Quantities(with mag)
#StartTime: ,2023-07-12_11:46:10_592 GMT-5
#© Xsens Technologies B. V. 2005-2023
#
PacketCounter,SampleTimeFine,Acc_X,Acc_Y,Acc_Z,Gyr_X,Gyr_Y,Gyr_Z,Mag_X,Mag_Y,Mag_Z
1,3131545898,9.286650,-2.633903,-0.378440,-3.371709,-3.567802,1.215820,-0.406494,-0.389648,0.995605
2,3131562565,9.334672,-2.758012,-0.295822,0.704906,-2.876511,1.615041,-0.403809,-0.389648,0.990967
3,3131579232,9.373192,-2.888022,-0.689582,4.770116,-1.220087,2.637308,-0.403809,-0.390381,0.992920
4,3131595899,9.323214,-2.933239,-0.940835,12.258585,-1.059342,4.010893,-0.397461,-0.390625,0.990234
5,3131612566,9.549504,-2.872242,-0.715739,10.160352,-2.289046,3.519334,-0.406494,-0.385986,0.994629
6,3131629233,9.737086,-2.878670,-1.014680,-13.458817,-4.933893,1.699884,-0.405518,-0.385986,0.996582
7,3131645900,9.583668,-2.636031,-0.915101,-17.134415,-4.471073,1.183865,-0.401123,-0.389648,0.990967
8,3131662567,9.309934,-2.418776,-0.348602,-7.561230,-1.732815,1.323082,-0.398438,-0.392334,0.990234
9,3131679234,9.344182,-2.566221,-0.513522,-2.585653,-1.879127,0.769143,-0.403809,-0.395996,0.990234
10,3131695901,9.344676,-2.716441,-0.805175,5.840075,0.704778,0.668805,-0.400146,-0.396729,0.993896
11,3131712568,9.248072,-2.818632,-0.804370,9.005665,0.801979,0.722029,-0.400146,-0.388672,0.989258
12,3131729235,9.308907,-2.851049,-0.758322,8.665567,-4.444304,-0.412070,-0.400146,-0.394287,0.984619
13,3131745902,9.448248,-2.824390,-0.629417,7.485435,-3.694121,-0.246445,-0.400146,-0.391357,0.991943
14,3131762569,9.410256,-2.780560,-0.549059,7.763729,-2.792310,0.493525,-0.399170,-0.386963,0.993896
15,3131779236,9.588367,-2.740942,-0.910462,2.849521,-1.548518,0.946216,-0.398193,-0.383057,0.997559
16,3131795903,9.397132,-2.661048,-0.815211,5.112494,-0.877824,2.063340,-0.398193,-0.386963,0.992920
17,3131812570,9.291794,-2.566488,-0.483939,2.552965,-1.393677,2.627370,-0.397461,-0.385010,0.990967
18,3131829237,9.352702,-2.588427,-0.581082,-5.719368,-0.820785,3.034817,-0.400879,-0.386963,0.991943
19,3131845904,9.197208,-2.648987,-0.690207,-3.747484,1.251110,3.836520,-0.398193,-0.389648,0.991943
20,3131862571,9.212790,-2.709960,-0.752126,1.711473,-0.740642,4.090393,-0.401855,-0.385010,0.993896
21,3131879238,9.327634,-2.891259,-0.729009,3.999404,-1.687288,3.582160,-0.401855,-0.388672,0.990234
22,3131895905,9.262970,-3.110232,-0.921839,7.890911,-2.897245,3.473871,-0.406250,-0.382324,0.993652
23,3131912572,9.406217,-3.069032,-0.905708,18.988392,-0.824704,4.456430,-0.400146,-0.377686,0.993652
24,3131929239,9.466028,-3.011177,-0.573527,25.687813,0.592852,5.042660,-0.402832,-0.374023,0.993652
25,3131945906,9.409764,-2.978394,-0.544500,28.342062,-1.064710,4.397117,-0.402588,-0.365967,1.000977
26,3131962573,9.332539,-2.954210,-0.574417,24.229967,-1.742820,3.133586,-0.404541,-0.358643,1.004639
27,3131979240,9.468644,-2.887583,-0.718768,18.746796,0.100664,2.890723,-0.403564,-0.351318,0.999023
28,3131995907,9.399528,-2.799332,-0.943681,18.542767,2.828433,3.399610,-0.402588,-0.348633,1.000977
29,3132012574,9.313039,-2.755679,-0.538035,18.285700,-0.000051,1.881248,-0.406250,-0.347656,1.004639
30,3132029241,9.408895,-2.667831,-0.362749,10.408320,-2.929351,0.290647,-0.407959,-0.339355,1.004395
31,3132045908,9.489708,-2.707250,-0.494962,4.516102,-2.750586,0.359737,-0.404297,-0.343018,1.005371
32,3132062575,9.452782,-2.698705,-0.600369,5.096551,-1.209180,1.338382,-0.403320,-0.338623,1.006348
33,3132079242,9.453169,-2.726066,-0.302205,7.269967,-2.390549,1.131781,-0.404297,-0.336670,1.010986
34,3132095909,9.449664,-2.758300,-0.332752,4.307679,-1.507295,0.723821,-0.404297,-0.337646,1.007324
35,3132112576,9.546086,-2.728014,-0.485338,4.784254,0.824992,0.913611,-0.403320,-0.331299,1.008057
36,3132129243,9.470113,-2.708744,-0.388862,6.729053,0.956961,1.293999,-0.406982,-0.336670,1.010010
37,3132145910,9.334068,-2.671887,-0.199275,4.489490,-1.533957,0.878881,-0.406982,-0.331299,1.007080
38,3132162577,9.393785,-2.692097,-0.180209,-0.206297,-3.633418,-0.352533,-0.403320,-0.333008,1.010010
39,3132179244,9.426337,-2.621754,-0.456887,-0.013216,-3.093003,-0.183861,-0.407959,-0.333008,1.010986
40,3132195911,9.374145,-2.700510,-0.618168,3.235928,-0.208065,0.678448,-0.408691,-0.334717,1.009033
41,3132212578,9.331965,-2.889567,-0.549797,3.847456,-1.451356,0.795140,-0.409668,-0.333984,1.007080
42,3132229245,9.358348,-2.833691,-0.486532,1.045401,-2.635713,0.454478,-0.403320,-0.333984,1.012939
43,3132245912,9.420119,-2.845803,-0.573901,-0.776001,-1.883737,1.422971,-0.401611,-0.333008,1.007324
44,3132262579,9.449084,-2.849930,-0.553705,-1.398582,-1.846765,1.487771,-0.404297,-0.332031,1.008057
45,3132279246,9.461792,-2.828090,-0.581254,-2.138417,2.016430,1.849794,-0.402588,-0.335693,1.007324
46,3132295913,9.267787,-2.828034,-0.425452,-0.538187,1.328153,1.959084,-0.404297,-0.333984,1.008057
47,3132312580,9.281479,-2.767866,-0.366494,-0.433918,-0.674549,2.365480,-0.409668,-0.333984,1.009033
48,3132329247,9.305841,-2.825918,-0.486047,-2.237154,-1.865335,2.832349,-0.405273,-0.334961,1.006348
49,3132345914,9.383857,-2.925265,-0.480352,-4.327254,-2.130542,2.460030,-0.407959,-0.336670,1.007324
50,3132362581,9.389962,-3.001589,-0.728803,-4.804559,0.352002,1.852125,-0.406250,-0.337646,1.005371
51,3132379248,9.282851,-3.019780,-0.632384,-3.009134,-0.516365,0.884599,-0.410645,-0.338379,1.007324
52,3132395915,9.277019,-3.049579,-0.502017,-3.014269,-3.964398,0.094530,-0.404297,-0.345703,1.008301
53,3132412582,9.288041,-3.029243,-0.525360,-2.757207,-4.779266,0.563076,-0.400635,-0.339355,1.008301
54,3132429249,9.460261,-2.816348,-0.804313,3.541680,-0.140934,3.470989,-0.406250,-0.343018,1.002686
55,3132445916,9.578442,-2.709753,-0.642623,5.546707,5.618192,6.008620,-0.408936,-0.343018,1.006348
56,3132462583,9.522227,-2.734253,-0.345595,-0.566668,3.403230,5.487246,-0.409668,-0.338623,1.004395
57,3132479250,9.411534,-2.767735,-0.051837,-11.197648,0.355933,3.943634,-0.413330,-0.341064,1.010010
58,3132495917,9.451496,-2.856757,-0.329008,-13.913136,1.897217,4.012008,-0.410645,-0.343994,1.003662
59,3132512584,9.332026,-2.770228,-0.757948,1.252006,5.094501,4.327848,-0.413330,-0.346680,1.001709
60,3132529251,9.197408,-2.837559,-0.602665,7.283145,1.546732,3.421595,-0.416992,-0.343994,1.001709
61,3132545918,9.298291,-2.945363,-0.581558,-5.412386,-0.388378,0.977297,-0.415283,-0.346680,0.997070
62,3132562585,9.586320,-3.071912,-0.986201,-3.396308,1.491267,0.033610,-0.417969,-0.352051,1.003662
63,3132579252,9.398995,-3.257728,-0.824510,7.823151,4.891904,0.379676,-0.418701,-0.346680,1.003418
64,3132595919,9.880649,-3.498458,-0.274481,5.803624,-0.334597,0.048898,-0.424072,-0.344971,1.000732
65,3132612586,10.153916,-3.859081,-0.779321,6.273762,1.981521,2.279230,-0.418701,-0.342041,1.000732
66,3132629253,8.858762,-3.749094,-0.986599,19.150751,4.468763,3.030992,-0.426025,-0.338379,1.002441
67,3132645920,8.736016,-2.933451,-0.620907,26.785671,0.839939,5.465271,-0.425049,-0.334717,1.002441
68,3132662587,9.136300,-2.227867,-0.253288,24.388344,-1.678660,5.609596,-0.427734,-0.326660,1.003174
69,3132679254,9.150758,-1.879258,-0.043547,14.128571,-1.220510,4.291597,-0.422363,-0.321045,1.006836
70,3132695921,9.477769,-1.875048,-0.165427,5.794420,1.161235,5.136263,-0.421387,-0.315674,1.005859
71,3132712588,9.239853,-2.269151,0.017504,-3.576955,2.264259,3.420672,-0.426758,-0.319336,1.004883
72,3132729255,9.125224,-2.668881,-0.008521,-10.383573,-1.543230,-1.059521,-0.425049,-0.322266,0.998535
73,3132745922,9.182405,-2.788619,-0.148844,-8.958159,-3.470163,-2.592121,-0.427734,-0.322021,1.005127
74,3132762589,9.221909,-3.220173,-0.471362,-8.639690,-1.604290,-1.053169,-0.420410,-0.328369,1.004150
75,3132779256,9.208308,-3.363748,-0.777196,0.210159,-3.066506,1.003819,-0.425049,-0.330322,1.003174
76,3132795923,9.419491,-3.159338,-0.508021,0.433565,-4.219578,2.893678,-0.425049,-0.324951,1.001465
77,3132812590,9.618554,-2.954145,-0.154029,-1.042501,-3.927093,2.786258,-0.423096,-0.327393,1.009766
78,3132829257,9.884519,-2.822251,-0.085656,-7.689190,-1.559967,2.131022,-0.423096,-0.329346,1.006104
79,3132845924,9.418104,-2.965331,-0.322360,-12.236140,-0.917934,1.900060,-0.427734,-0.332031,0.999512
80,3132862591,9.088376,-2.994859,-0.341303,-11.867419,-1.648472,3.315028,-0.425049,-0.343994,0.999756
81,3132879258,9.078466,-2.986331,-0.427452,-8.949681,-3.555069,4.535979,-0.424072,-0.341309,0.996826
82,3132895925,9.210102,-2.814534,-0.460300,-6.305747,-3.978204,5.208722,-0.424072,-0.337646,0.998779
83,3132912592,9.251657,-2.942558,-0.610633,-8.256411,-3.433575,4.260424,-0.422363,-0.343018,0.997803
84,3132929259,9.310782,-3.087525,-0.458476,-10.902858,-0.648053,2.913388,-0.419678,-0.341309,0.998779
85,3132945926,9.169580,-3.189481,-0.395838,-12.073409,-1.632221,1.831533,-0.427002,-0.350342,0.996826
86,3132962593,9.166033,-3.163998,-0.163676,-10.667336,-3.726099,1.002321,-0.422363,-0.350342,0.995117
87,3132979260,9.440348,-2.930747,-0.352984,-9.334089,-3.581015,3.660575,-0.425049,-0.352295,0.994141
88,3132995927,9.677670,-2.831451,-0.447249,-9.593868,-3.083232,6.949605,-0.423340,-0.358643,0.993408
89,3133012594,9.444743,-2.620267,-0.085891,-19.325563,-0.712738,6.641286,-0.425049,-0.358643,0.992432
90,3133029261,9.247163,-2.360746,-0.042511,-31.110447,-1.326576,5.424398,-0.427002,-0.369629,0.987793
91,3133045928,9.319615,-2.311533,0.065852,-39.638538,-1.955771,4.045965,-0.426270,-0.379639,0.987061
92,3133062595,9.281889,-2.462728,0.242225,-46.698277,-2.411774,2.780760,-0.426270,-0.390381,0.981445
93,3133079262,9.388948,-2.742097,-0.181992,-51.248093,-1.131400,2.869974,-0.431641,-0.402344,0.973145
94,3133095929,9.682557,-3.058639,-0.717879,-44.395573,1.556078,4.586633,-0.430908,-0.416992,0.972412
95,3133112596,9.706264,-3.299896,-0.798836,-36.284798,3.083963,5.112671,-0.431885,-0.425293,0.959473
96,3133129263,9.389627,-3.745508,-0.936682,-33.462463,0.792108,3.726285,-0.432861,-0.434326,0.960449
97,3133145930,9.143438,-4.173987,-1.366488,-28.090538,-4.581856,-0.273506,-0.431152,-0.442627,0.952148
98,3133162597,9.020005,-4.212079,-1.614818,-18.105257,-7.432469,-2.981911,-0.430176,-0.448975,0.952393
99,3133179264,8.848921,-4.029086,-1.575091,-7.712130,-10.580793,-3.595935,-0.424805,-0.454346,0.954346
100,3133195931,9.271109,-3.425262,-1.808230,0.508700,-6.527960,-1.414551,-0.418457,-0.458984,0.956299
101,3133212598,9.354406,-3.022439,-1.773622,12.346447,-2.086181,1.193853,-0.423096,-0.453369,0.958984
102,3133229265,9.347891,-3.162802,-1.061712,12.768470,-1.740640,-0.469212,-0.420166,-0.448975,0.958984
103,3133245932,9.224938,-3.478282,-0.573266,7.467354,-2.092033,-2.701526,-0.424805,-0.447021,0.961670
104,3133262599,9.279313,-3.419780,-0.380737,9.421948,-0.869103,-3.396706,-0.422852,-0.447021,0.965332
105,3133279266,9.371385,-3.088914,-0.440831,12.189442,2.703108,-1.652327,-0.423828,-0.446045,0.961670
106,3133295933,9.396593,-2.930306,-0.451950,7.605033,4.148868,-0.240234,-0.425537,-0.446045,0.965332
107,3133312600,9.306056,-2.853679,-0.718961,0.502912,1.246589,0.693662,-0.425537,-0.443359,0.963379
108,3133329267,9.168707,-2.850731,-0.988402,-3.912699,-3.196914,1.754874,-0.425537,-0.445312,0.960693
109,3133345934,9.231730,-2.826561,-1.180906,-5.272568,-4.689686,2.490458,-0.422852,-0.444336,0.961670
110,3133362601,9.315422,-2.796960,-1.079540,-4.895061,-1.587565,3.212838,-0.422852,-0.447998,0.960693
111,3133379268,9.230233,-2.949731,-0.930533,-3.999283,-1.030476,3.781543,-0.423828,-0.450684,0.958008
112,3133395935,9.174857,-3.182677,-0.743586,-5.000855,-4.290525,2.719089,-0.422119,-0.451660,0.956055
113,3133412602,9.281862,-3.316248,-0.916341,-6.055279,-4.918036,2.181133,-0.424805,-0.450684,0.959717
114,3133429269,9.485738,-3.387035,-1.183994,0.167693,-0.738004,2.300565,-0.424805,-0.451660,0.961670
115,3133445936,9.399889,-3.337499,-0.846128,7.238541,3.169706,1.994506,-0.422852,-0.449707,0.960693
116,3133462603,9.282558,-3.237776,-0.658887,8.355717,1.972851,0.759718,-0.424805,-0.449707,0.958008
117,3133479270,9.327579,-3.042946,-0.565619,10.007328,0.387411,-0.484989,-0.424805,-0.447998,0.953369
118,3133495937,9.277702,-2.818470,-0.709558,10.243452,-1.879371,-0.383512,-0.423828,-0.445312,0.958740
119,3133512604,9.413424,-2.652446,-1.107281,11.904128,-3.399460,0.875295,-0.425537,-0.437988,0.965332
120,3133529271,9.413606,-2.604114,-1.014345,12.507232,-0.029890,1.214023,-0.424805,-0.437012,0.959717
121,3133545938,9.254787,-2.625969,-0.636949,4.341692,0.596552,0.970625,-0.422852,-0.437012,0.962402
122,3133562605,9.265317,-2.745675,-0.447406,-3.916938,-2.023698,0.627197,-0.422119,-0.438965,0.964355
123,3133579272,9.384719,-2.940255,-0.608935,-5.885991,-0.566950,0.939096,-0.424805,-0.441650,0.960693
124,3133595939,9.241674,-3.181822,-0.778548,-1.694191,-2.111498,1.011426,-0.422852,-0.441650,0.961670
125,3133612606,9.448630,-3.281026,-1.100333,2.907586,0.570081,0.587408,-0.424805,-0.438965,0.961670
126,3133629273,9.293540,-3.139296,-0.830279,8.182817,2.562622,0.040500,-0.421143,-0.439697,0.960693
127,3133645940,9.249430,-3.025129,-0.574399,9.262337,0.220314,-0.389341,-0.427490,-0.437012,0.960693
128,3133662607,9.286568,-2.968275,-0.749247,11.757459,-1.289344,-0.394589,-0.430908,-0.432617,0.961426
129,3133679274,9.366451,-2.811323,-0.825240,11.839047,-2.686095,0.424012,-0.427490,-0.432617,0.962402
130,3133695941,9.380230,-2.719338,-0.737124,9.375846,-2.443683,1.737816,-0.422852,-0.435303,0.967041
131,3133712608,9.255377,-2.743232,-0.719105,0.823698,-3.837346,1.703661,-0.425537,-0.432373,0.965332
132,3133729275,9.299089,-2.703686,-0.702236,-5.133785,-5.334972,1.559026,-0.425537,-0.430664,0.962402
133,3133745942,9.350684,-2.832924,-0.570689,-6.722924,-2.702588,1.426967,-0.422119,-0.436279,0.961670
134,3133762609,9.369400,-3.015018,-0.777201,-3.127029,-2.576305,1.545707,-0.421875,-0.434326,0.963379
135,3133779276,9.450521,-3.062485,-0.891530,2.243487,-0.945877,2.529978,-0.424561,-0.432617,0.963379
136,3133795943,9.340271,-3.088375,-0.741230,4.215652,-0.383845,1.874600,-0.426514,-0.436279,0.960693
137,3133812610,9.325250,-3.018699,-0.578875,4.957435,-3.348541,0.295718,-0.422852,-0.432373,0.965332
138,3133829277,9.376842,-2.987794,-0.679337,2.760505,-2.385695,0.032880,-0.421143,-0.433350,0.965332
139,3133845944,9.337236,-2.950755,-0.775775,4.204088,-1.210968,0.511991,-0.422852,-0.431641,0.965332
140,3133862611,9.357378,-2.920097,-0.873196,4.382430,-3.230736,0.338952,-0.421875,-0.428955,0.963379
141,3133879278,9.360549,-2.816818,-0.802065,4.865933,-2.813094,-0.225161,-0.421875,-0.433350,0.966309
142,3133895945,9.333466,-2.795117,-0.640272,3.797615,-3.811619,-0.275093,-0.420166,-0.431641,0.966309
143,3133912612,9.457012,-2.789823,-0.719858,3.008180,-1.186150,0.737037,-0.419189,-0.427979,0.962402
144,3133929279,9.437184,-2.789444,-0.671745,3.070354,2.675573,1.832698,-0.421875,-0.431641,0.968994
145,3133945946,9.176542,-2.843685,-0.505236,-0.275657,-0.001332,1.446855,-0.424561,-0.427002,0.968018
146,3133962613,9.265718,-2.917760,-0.735656,-3.819315,-2.199170,0.137150,-0.423828,-0.429688,0.966064
147,3133979280,9.307581,-2.857510,-0.908134,-2.146229,-3.982494,-0.163435,-0.425537,-0.432617,0.962402
148,3133995947,9.385690,-2.893398,-0.838004,0.923600,-4.735148,1.210271,-0.421143,-0.435303,0.967041
149,3134012614,9.354139,-2.999360,-0.749812,-1.309834,-4.981799,0.969114,-0.416504,-0.435303,0.968018
150,3134029281,9.421567,-2.970439,-0.779855,-0.518785,-1.601677,0.585846,-0.421143,-0.434326,0.964355
151,3134045948,9.374387,-2.844781,-0.746858,1.322582,0.930477,0.879239,-0.421143,-0.434326,0.963379
152,3134062615,9.337209,-2.966156,-0.746966,1.129693,-0.549674,0.465556,-0.420166,-0.433350,0.964355
153,3134079282,9.349130,-3.105963,-0.626945,1.091492,-2.268735,-0.555924,-0.418457,-0.436035,0.966309
154,3134095949,9.362285,-2.968428,-0.708416,3.420096,-0.664803,0.081404,-0.418457,-0.436035,0.965332
155,3134112616,9.328529,-2.920478,-0.702410,5.700356,0.350798,0.926866,-0.418457,-0.434326,0.961670
156,3134129283,9.259240,-2.910076,-0.577270,4.995265,-1.404357,0.460075,-0.423828,-0.430664,0.961426
157,3134145950,9.286631,-2.962773,-0.661880,2.802459,-2.611266,0.007063,-0.423828,-0.431641,0.962402
158,3134162617,9.417200,-2.934317,-0.997037,-0.112984,-1.191457,-0.056934,-0.421143,-0.432373,0.967041
159,3134179284,9.433100,-2.867884,-0.878554,3.820909,1.407066,1.243772,-0.421143,-0.434326,0.968994
160,3134195951,9.243825,-2.901138,-0.533969,2.828878,-1.829848,1.151464,-0.418457,-0.434326,0.968994
161,3134212618,9.260720,-2.929734,-0.555198,0.794474,-4.500420,-0.146313,-0.420166,-0.426025,0.969971
162,3134229285,9.380719,-2.922703,-0.816478,2.528979,-3.373769,-0.134812,-0.420166,-0.433350,0.963379
163,3134245952,9.389153,-2.845504,-0.951360,5.528636,-0.678468,1.182929,-0.419189,-0.431641,0.969971
164,3134262619,9.385807,-2.912853,-1.001948,5.390174,-1.059662,1.229275,-0.420166,-0.431641,0.968994
165,3134279286,9.417130,-2.860761,-0.596761,3.620286,-1.479223,0.238089,-0.422852,-0.426025,0.971680
166,3134295953,9.529094,-2.693821,-0.474718,0.511428,-1.537940,1.364574,-0.418457,-0.427002,0.963379
167,3134312620,9.547863,-2.451703,-0.563773,0.394173,2.510628,3.870688,-0.415771,-0.431641,0.967285
168,3134329287,9.431265,-2.318427,-0.502548,-3.254402,4.508201,6.144827,-0.418457,-0.428955,0.968018
169,3134345954,9.524652,-2.511717,-0.456343,-8.006752,5.971892,8.215001,-0.426514,-0.435303,0.962402
170,3134362621,9.399900,-2.671863,-0.637748,-15.105860,3.470582,7.777644,-0.425537,-0.433350,0.964355
171,3134379288,9.167621,-2.861041,-0.799513,-18.340548,2.575648,6.837633,-0.425537,-0.434326,0.963379
172,3134395955,9.013059,-3.009674,-0.976373,-16.320007,-0.294546,5.202707,-0.431885,-0.441650,0.958740
173,3134412622,9.258371,-2.876669,-1.034354,-11.628480,-1.373162,5.179127,-0.433838,-0.444336,0.954102
174,3134429289,9.426454,-2.532834,-0.508998,-12.709722,0.759001,5.588944,-0.431885,-0.444336,0.953125
175,3134445956,9.499494,-2.310173,-0.377414,-24.366014,2.729007,6.178482,-0.435547,-0.452393,0.960693
176,3134462623,9.420297,-2.394309,-0.449299,-32.336121,5.144696,7.627550,-0.436523,-0.458008,0.945801
177,3134479290,9.282334,-2.618422,-0.364912,-35.038460,4.353468,7.598625,-0.440186,-0.467285,0.938477
178,3134495957,9.192256,-2.784892,-0.812858,-36.950829,2.597518,6.380559,-0.442139,-0.477295,0.935791
179,3134512624,9.156048,-2.911108,-0.973941,-35.699615,2.453330,3.353211,-0.443115,-0.489258,0.927490
180,3134529291,9.211871,-3.034100,-0.879282,-32.715248,1.638149,0.546878,-0.445801,-0.496338,0.922852
181,3134545958,9.464202,-3.031291,-1.071084,-30.012951,-0.091246,1.302314,-0.444092,-0.507324,0.917480
182,3134562625,9.477052,-3.114647,-0.889229,-29.452171,0.558480,2.008676,-0.443115,-0.510986,0.916504
183,3134579292,9.441531,-3.363531,-0.849045,-24.886477,0.030806,1.526578,-0.445801,-0.519287,0.912842
184,3134595959,9.464281,-3.476984,-1.045258,-16.785275,-0.874303,1.519136,-0.446045,-0.521973,0.907227
185,3134612626,9.459060,-3.491315,-1.163120,-13.275302,3.137654,2.242028,-0.450439,-0.521973,0.904541
186,3134629293,9.203984,-3.384600,-1.451752,-13.185606,-0.152575,3.014149,-0.450439,-0.534912,0.901855
187,3134645960,8.993175,-3.024895,-1.116763,-10.712503,-4.553185,1.868748,-0.449707,-0.533936,0.902832
188,3134662627,9.159434,-2.677783,-0.893708,-12.712001,-5.227978,-0.118523,-0.447021,-0.537598,0.899170
189,3134679294,9.616493,-2.396312,-0.666489,-16.214596,1.144301,1.569742,-0.447754,-0.540283,0.897217
190,3134695961,9.674110,-2.294528,-0.444490,-17.340714,4.999303,5.118480,-0.452393,-0.543945,0.890869
191,3134712628,9.305903,-2.467413,-0.221339,-26.518217,3.996533,5.811863,-0.450684,-0.550293,0.891846
192,3134729295,9.302545,-2.673385,-0.572787,-35.045303,3.853133,4.566783,-0.454346,-0.558594,0.881592
193,3134745962,9.313779,-3.059429,-1.186706,-39.273964,4.147046,4.665680,-0.458008,-0.564941,0.878906
194,3134762629,9.261819,-2.976781,-1.386909,-39.613354,3.167316,7.409509,-0.454346,-0.572510,0.864014
195,3134779296,9.013812,-2.994524,-1.282060,-39.063492,0.082787,8.423406,-0.460693,-0.582520,0.861328
196,3134795963,9.064508,-2.868901,-0.954926,-43.656815,-3.822453,7.158805,-0.461670,-0.593506,0.854004
197,3134812630,9.519108,-2.732891,-0.812553,-43.638763,-2.393689,6.464362,-0.466309,-0.613525,0.845703
198,3134829297,9.716967,-2.680643,-0.660883,-40.085453,8.032415,7.879814,-0.467285,-0.612793,0.833740
199,3134845964,9.163201,-3.018486,-0.955230,-39.004040,9.295754,7.289526,-0.469971,-0.621826,0.830078
200,3134862631,8.789419,-3.519884,-1.801633,-36.509293,3.970646,3.139857,-0.470947,-0.627197,0.826416
201,3134879298,8.728830,-3.989055,-2.420745,-26.554825,0.124689,-1.923608,-0.471924,-0.635498,0.819824
202,3134895965,8.665747,-4.175448,-2.555725,-11.433785,-4.840842,-5.822385,-0.466553,-0.637451,0.817139
203,3134912632,8.965510,-4.122240,-2.789379,1.715188,-11.085402,-7.416545,-0.463867,-0.643799,0.813477
204,3134929299,9.390981,-3.738947,-2.467706,8.982637,-9.952335,-6.380142,-0.465576,-0.642822,0.821045
205,3134945966,9.579219,-3.527669,-1.443545,14.086915,-7.166492,-6.876568,-0.459229,-0.641846,0.823730
206,3134962633,9.544005,-3.421599,-0.723296,16.544243,-2.524135,-7.363098,-0.458496,-0.638184,0.827393
207,3134979300,9.456618,-3.199071,-0.618080,23.026527,0.759309,-7.530060,-0.461914,-0.635498,0.831055
208,3134995967,9.351289,-3.037632,-0.695427,26.618420,4.713408,-6.633271,-0.458252,-0.630127,0.831055
209,3135012634,9.393196,-2.758310,-0.971842,25.615524,7.973824,-4.793275,-0.458252,-0.625488,0.830078
210,3135029301,9.323812,-2.415779,-1.249476,23.071449,5.537804,-1.619981,-0.457520,-0.622803,0.836670
211,3135045968,9.131367,-2.337592,-0.947040,10.777771,-0.927078,-1.230191,-0.461914,-0.621826,0.837646
212,3135062635,9.153099,-2.489459,-1.002873,-7.369287,-4.082242,-2.542099,-0.457275,-0.619873,0.841309
213,3135079302,9.253624,-2.639435,-1.241007,-14.258934,-3.377728,-1.616073,-0.457520,-0.626465,0.834961
214,3135095969,9.387128,-2.672056,-1.197071,-14.870516,-2.041462,2.023078,-0.454834,-0.629150,0.835938
215,3135112636,9.442974,-2.823809,-1.308510,-13.330192,-0.771570,6.084603,-0.457520,-0.627197,0.833008
216,3135129303,9.239534,-3.251880,-1.296422,-7.732131,-1.265101,5.782537,-0.457520,-0.629150,0.833008
217,3135145970,9.115533,-3.551674,-1.238266,-2.648226,-3.893259,3.736336,-0.455811,-0.632812,0.827393
218,3135162637,9.351548,-3.416620,-1.255437,0.755927,-2.846762,2.615716,-0.455811,-0.632812,0.828369
219,3135179304,9.342058,-3.196533,-1.166444,3.855307,-0.996795,3.146975,-0.458496,-0.634521,0.827393
220,3135195971,9.384467,-2.991103,-1.123175,3.141903,-1.043205,3.557547,-0.460205,-0.630859,0.830322
221,3135212638,9.327360,-2.849087,-1.295511,2.359115,0.716069,3.134019,-0.461182,-0.630127,0.829346
222,3135229305,9.192722,-2.768207,-1.354781,5.025206,0.373312,1.734255,-0.462891,-0.631836,0.832031
223,3135245972,9.287135,-2.659875,-1.224229,6.596815,-2.081186,0.774163,-0.459229,-0.631836,0.832031
224,3135262639,9.309995,-2.705643,-1.208611,5.022542,-3.991625,0.367792,-0.462891,-0.630859,0.830078
225,3135279306,9.481786,-2.725575,-1.204626,4.811916,-2.767324,0.898154,-0.456543,-0.630127,0.830322
226,3135295973,9.416940,-2.791577,-1.073468,2.926911,-1.684906,1.745281,-0.457520,-0.627197,0.833008
227,3135312640,9.318637,-2.887751,-1.028256,0.995303,-3.795277,1.227508,-0.456543,-0.628174,0.831055
228,3135329307,9.378695,-2.897148,-1.094123,-0.926885,-1.369562,0.967846,-0.462891,-0.626465,0.830078
229,3135345974,9.281510,-2.939104,-1.049376,1.337450,-0.410751,1.047297,-0.460938,-0.629150,0.833984
230,3135362641,9.244830,-2.978791,-1.186586,3.471168,-0.527314,0.981511,-0.460205,-0.635498,0.833008
231,3135379308,9.337115,-2.919585,-1.173513,5.670479,0.153619,1.727980,-0.457520,-0.628174,0.831055
232,3135395975,9.285348,-2.852414,-1.116915,4.624335,-0.951397,2.227204,-0.459229,-0.625488,0.829346
233,3135412642,9.265939,-2.793333,-1.301515,3.085626,-1.855858,2.482037,-0.458252,-0.622803,0.833984
234,3135429309,9.276358,-2.704981,-1.216487,2.928384,-0.137463,2.482223,-0.460938,-0.625488,0.832031
235,3135445976,9.235289,-2.725684,-1.150017,2.042491,-0.457584,1.394900,-0.459229,-0.627197,0.832031
236,3135462643,9.416069,-2.715926,-1.336010,1.485991,-0.709152,1.734242,-0.459229,-0.623779,0.831055
237,3135479310,9.450679,-2.657783,-1.155741,2.790895,-2.058647,3.679899,-0.460205,-0.622803,0.836670
238,3135495977,9.287233,-2.799429,-0.921929,-0.568307,-3.779525,3.408852,-0.460938,-0.622803,0.832031
239,3135512644,9.188124,-2.863905,-1.001666,-3.967805,-3.434305,0.807677,-0.460205,-0.619141,0.835693
240,3135529311,9.330354,-2.846578,-1.219816,-2.220852,-3.021300,-0.566527,-0.461914,-0.627197,0.833008
241,3135545978,9.577968,-2.890327,-1.426091,0.766684,0.586576,0.808779,-0.458252,-0.622803,0.827393
242,3135562645,9.401617,-2.964914,-1.218124,1.553686,-0.782199,2.428590,-0.461914,-0.626465,0.834717
243,3135579312,9.256413,-2.990727,-0.987872,-0.476255,-2.641592,1.280936,-0.460205,-0.627197,0.832031
244,3135595979,9.159150,-2.938154,-1.025282,0.641720,-1.959218,-0.118408,-0.458252,-0.623779,0.831055
245,3135612646,9.294891,-2.806799,-1.247405,5.249483,-1.110336,0.356638,-0.460205,-0.624512,0.832031
246,3135629313,9.338622,-2.776478,-1.260545,7.146744,-0.521231,1.231452,-0.459229,-0.621826,0.833008
247,3135645980,9.305238,-2.849927,-1.144547,3.576039,-2.421335,1.131511,-0.461914,-0.623535,0.831055
248,3135662647,9.291570,-2.863510,-1.201878,1.004076,-2.525886,1.044774,-0.465576,-0.623535,0.832764
249,3135679314,9.322484,-2.816940,-1.151456,0.679255,-2.782103,1.568682,-0.455566,-0.623779,0.833008
250,3135695981,9.408698,-2.727513,-1.171892,1.061064,-1.776843,2.844450,-0.457520,-0.623779,0.832031
251,3135712648,9.285762,-2.748584,-1.127486,0.590712,-1.150458,2.925079,-0.458252,-0.619141,0.835693
252,3135729315,9.222006,-2.844599,-1.006636,-2.315928,-2.601787,1.930102,-0.454834,-0.626465,0.832031
253,3135745982,9.359575,-2.934569,-1.167493,-3.255208,0.013696,1.241275,-0.459229,-0.629150,0.829346
254,3135762649,9.407618,-2.883128,-1.268799,1.496749,0.748743,3.151035,-0.461914,-0.623535,0.833740
255,3135779316,9.377270,-2.940912,-1.033641,3.751499,-1.142045,3.790482,-0.465576,-0.625488,0.836670
256,3135795983,9.212309,-3.097355,-1.002172,0.490669,-1.528707,1.886446,-0.462891,-0.620850,0.826416
257,3135812650,9.203513,-2.922343,-1.156428,0.454709,-1.377797,0.173135,-0.459229,-0.621094,0.826416
258,3135829317,9.254804,-2.725158,-1.233037,3.040119,-1.184114,0.058186,-0.460938,-0.620117,0.832031
259,3135845984,9.400560,-2.737757,-1.280146,1.925832,-0.740233,0.885277,-0.460205,-0.621826,0.830078
260,3135862651,9.426942,-2.816960,-1.298689,1.471610,-1.324330,2.084816,-0.458252,-0.625488,0.832031
261,3135879318,9.358927,-2.929863,-1.145242,1.569988,-1.990568,2.189687,-0.460938,-0.622803,0.832031
262,3135895985,9.219868,-2.996544,-1.154922,-0.030671,-1.877590,1.484314,-0.461182,-0.625488,0.827393
263,3135912652,9.197788,-2.865156,-1.156082,0.801492,-1.782375,0.890906,-0.458252,-0.622803,0.832031
264,3135929319,9.359487,-2.722951,-1.102469,3.549990,-1.983678,0.529446,-0.461914,-0.624512,0.832031
265,3135945986,9.466822,-2.739553,-1.057003,3.733288,0.192524,0.711220,-0.462891,-0.621826,0.832031
266,3135962653,9.361528,-2.896727,-1.085815,-0.016597,-1.340927,1.398761,-0.460938,-0.623779,0.831055
267,3135979320,9.325390,-2.978757,-1.096399,-1.180156,-2.056226,0.950404,-0.463623,-0.624512,0.833008
268,3135995987,9.262158,-2.920560,-1.094201,0.155757,-0.027380,0.018768,-0.462891,-0.627197,0.829102
269,3136012654,9.242189,-2.803108,-1.112830,-0.132738,1.364895,-0.943777,-0.462891,-0.623779,0.829102
270,3136029321,9.218665,-2.802381,-1.174906,0.432874,0.650646,-1.658665,-0.463867,-0.625488,0.827393
271,3136045988,9.403546,-2.817108,-1.243872,4.189796,-0.967072,-1.038480,-0.459229,-0.627441,0.825439
272,3136062655,9.516959,-2.791977,-1.141995,3.882879,-1.131223,0.972213,-0.464600,-0.625488,0.827393
273,3136079322,9.365376,-2.850275,-1.148349,0.746258,-2.089164,1.777400,-0.460205,-0.621826,0.827393
274,3136095989,9.267692,-2.906614,-1.076406,0.258541,-0.799103,1.178805,-0.461182,-0.626465,0.827393
275,3136112656,9.254006,-2.830751,-1.027930,0.245978,1.498337,-0.107701,-0.464600,-0.629150,0.830078
276,3136129323,9.250165,-2.734296,-1.023296,-0.255717,3.302918,-0.768650,-0.461182,-0.626465,0.825439
277,3136145990,9.298493,-2.781536,-1.113047,0.670444,4.194047,-1.634795,-0.465576,-0.627441,0.824463
278,3136162657,9.338128,-2.875636,-1.133988,3.668052,3.373405,-1.459962,-0.461914,-0.625488,0.822754
279,3136179324,9.350914,-2.865326,-1.059387,4.284192,-1.490109,-0.268639,-0.464600,-0.625488,0.825439
280,3136195991,9.459173,-2.872496,-1.040999,0.943104,-4.029313,1.147455,-0.465576,-0.630859,0.831055
281,3136212658,9.383850,-2.888735,-1.068820,0.307051,-2.678025,1.209874,-0.461182,-0.629150,0.824707
282,3136229325,9.305550,-2.846625,-1.003658,1.036668,-0.234612,0.785471,-0.462891,-0.624512,0.828369
283,3136245992,9.273497,-2.776424,-0.938771,1.042418,1.066314,0.119618,-0.463867,-0.626465,0.822754
284,3136262659,9.270412,-2.764416,-0.978903,0.736891,0.956942,-0.310433,-0.464600,-0.626465,0.823730
285,3136279326,9.343800,-2.817025,-1.029294,1.294101,0.596513,-0.107932,-0.462891,-0.627441,0.824463
286,3136295993,9.341274,-2.894281,-1.020004,0.737025,-0.323514,0.637174,-0.466553,-0.632812,0.826416
287,3136312660,9.354051,-2.886550,-1.019927,-0.497539,-1.412528,1.430911,-0.463867,-0.628174,0.824463
288,3136329327,9.334264,-2.872697,-1.086567,-0.721932,-1.601063,1.658877,-0.464600,-0.629150,0.826416
289,3136345994,9.298439,-2.843192,-1.075824,-0.158158,-1.926818,1.636658,-0.465576,-0.627441,0.826416
290,3136362661,9.297689,-2.853718,-1.045684,0.487659,-1.992079,1.387920,-0.463867,-0.628174,0.821777
291,3136379328,9.293354,-2.905154,-1.073882,0.868584,-1.933900,1.368711,-0.467285,-0.623779,0.823486
292,3136395995,9.314736,-2.928486,-1.067924,1.310672,-1.472948,1.645366,-0.461914,-0.635498,0.824707
293,3136412662,9.378192,-2.936802,-1.087355,1.838947,-1.484653,2.007043,-0.461914,-0.630127,0.824707
294,3136429329,9.372298,-2.866993,-1.114533,2.557883,-1.758581,2.337422,-0.465576,-0.628174,0.824463
295,3136445996,9.338742,-2.816862,-1.083798,2.950154,-2.028449,2.644249,-0.464600,-0.628174,0.823730
296,3136462663,9.307603,-2.776212,-1.094971,1.994269,-2.412063,2.176965,-0.467285,-0.628174,0.829102
297,3136479330,9.321241,-2.751335,-1.097376,1.986117,-2.095631,1.637196,-0.465576,-0.627441,0.826416
298,3136495997,9.363354,-2.789091,-1.083868,2.070255,-1.688504,1.226279,-0.463867,-0.626465,0.825439
299,3136512664,9.366025,-2.838798,-1.081304,1.881298,-1.827940,1.273124,-0.462891,-0.625488,0.831055
300,3136529331,9.326542,-2.894142,-1.135803,1.638604,-2.838412,1.860423,-0.466553,-0.622803,0.828125
301,3136545998,9.307502,-2.846543,-1.092295,3.156721,-2.921667,2.001460,-0.464600,-0.624512,0.826416
302,3136562665,9.284816,-2.782178,-1.011023,4.112933,-2.400141,1.981905,-0.463867,-0.626465,0.826416
303,3136579332,9.302073,-2.803595,-0.946188,3.441649,-2.306897,1.777028,-0.458252,-0.624512,0.830078
304,3136595999,9.342434,-2.841862,-0.955099,1.680648,-2.164670,1.783751,-0.466553,-0.630127,0.828369
305,3136612666,9.338027,-2.915569,-0.973976,0.731595,-3.079428,2.141165,-0.470947,-0.622803,0.828125
306,3136629333,9.356561,-2.972152,-1.094605,1.976552,-4.254551,2.735571,-0.469238,-0.622803,0.829102
307,3136646000,9.343225,-2.926987,-1.169729,2.765717,-5.872109,3.262527,-0.463867,-0.623779,0.827393
308,3136662667,9.403893,-2.843280,-1.074597,2.826458,-4.308722,3.175840,-0.465576,-0.625488,0.832031
309,3136679334,9.291617,-2.811491,-1.122651,2.793725,-2.497059,2.627460,-0.462891,-0.619873,0.834717
310,3136696001,9.290943,-2.749967,-1.138059,3.731662,-1.724285,1.826038,-0.466309,-0.620850,0.831787
311,3136712668,9.294091,-2.778353,-1.138513,3.450511,-0.842414,1.287685,-0.464600,-0.619141,0.831787
312,3136729335,9.330497,-2.836791,-1.148718,2.612374,-0.954316,0.890329,-0.463623,-0.622803,0.832764
313,3136746002,9.385629,-2.818995,-1.094481,2.186473,-1.680718,1.526984,-0.464600,-0.623535,0.835693
314,3136762669,9.439779,-2.821057,-1.127326,1.751595,-2.358763,2.104896,-0.460938,-0.620850,0.832031
315,3136779336,9.408295,-2.779612,-1.048107,2.684632,-2.492465,2.416138,-0.461914,-0.617188,0.832031
316,3136796003,9.336461,-2.752238,-0.996630,1.396193,-1.840580,1.895641,-0.465576,-0.621826,0.834717
317,3136812670,9.245172,-2.765848,-1.004431,0.493012,-0.477190,1.050678,-0.460938,-0.614502,0.828125
318,3136829337,9.208677,-2.786473,-1.046814,0.944859,-1.170500,0.445091,-0.466309,-0.619141,0.830078
319,3136846004,9.355854,-2.859330,-1.050934,0.799046,-2.858608,0.631091,-0.462891,-0.624512,0.832031
320,3136862671,9.396808,-2.941146,-1.135333,-0.569767,-4.000512,1.695337,-0.462891,-0.623535,0.831055
321,3136879338,9.335886,-3.008030,-1.130058,-0.028776,-3.639232,2.607354,-0.461914,-0.623535,0.835693
322,3136896005,9.307155,-2.987052,-1.148100,0.463327,-2.290378,2.696857,-0.461914,-0.617188,0.836670
323,3136912672,9.314806,-2.860873,-1.238618,0.359532,-1.669218,2.115910,-0.461914,-0.618164,0.835693
324,3136929339,9.366775,-2.733100,-1.215463,1.024501,-1.489033,1.826192,-0.463623,-0.621826,0.835693
325,3136946006,9.341711,-2.703439,-1.130952,-0.025754,-0.952677,1.596241,-0.467285,-0.621826,0.833740
326,3136962673,9.308589,-2.804157,-1.120756,-0.072778,-2.516153,1.395668,-0.460205,-0.620850,0.832031
327,3136979340,9.296361,-2.898733,-1.124835,-0.046602,-3.571871,1.270652,-0.468262,-0.626465,0.832031
328,3136996007,9.336492,-2.996197,-1.154284,-0.317956,-3.306548,0.810149,-0.459229,-0.621826,0.833740
329,3137012674,9.334998,-3.058984,-1.139231,1.145009,-1.883635,0.494818,-0.460205,-0.625488,0.833008
330,3137029341,9.281101,-3.040231,-1.137026,2.717674,-1.690451,0.326472,-0.462891,-0.617188,0.832764
331,3137046008,9.288222,-2.919707,-1.158929,3.393497,-1.530372,0.607348,-0.459229,-0.618164,0.833740
332,3137062675,9.336742,-2.906185,-1.140157,3.489058,-0.464192,0.794205,-0.464600,-0.619141,0.832764
333,3137079342,9.349409,-2.852714,-1.099121,3.743546,-0.416770,1.503062,-0.463623,-0.619141,0.834717
334,3137096009,9.342011,-2.820133,-1.108386,1.725047,-1.730406,2.158875,-0.464600,-0.617188,0.832764
335,3137112676,9.318132,-2.792199,-1.089392,-1.013098,-1.061582,2.311066,-0.463623,-0.616455,0.830078
336,3137129343,9.229739,-2.809702,-1.150412,-2.535299,-1.029733,2.054529,-0.467285,-0.618164,0.833740
337,3137146010,9.284528,-2.813884,-1.166636,-2.177528,-1.337841,1.714111,-0.462891,-0.624512,0.832031
338,3137162677,9.349542,-2.879868,-1.162837,-1.339544,-0.943751,1.662476,-0.462891,-0.624512,0.829102
339,3137179344,9.347963,-2.950821,-1.127467,-1.513339,-1.214644,1.680071,-0.460205,-0.622803,0.833740
340,3137196011,9.335123,-3.000902,-1.073598,-0.558357,-0.311604,1.356045,-0.463623,-0.627197,0.835693
341,3137212678,9.267369,-3.002254,-1.012775,1.137774,-0.849010,1.502908,-0.468262,-0.618164,0.829102
342,3137229345,9.305588,-2.950141,-1.036641,1.660286,-1.445914,1.145099,-0.462891,-0.622803,0.833740
343,3137246012,9.298695,-2.925827,-1.042507,1.647543,-1.556279,0.605567,-0.464600,-0.622803,0.832764
344,3137262679,9.317345,-2.900476,-1.085596,1.508608,-3.628974,0.755094,-0.464600,-0.624512,0.830078
345,3137279346,9.368094,-2.887523,-1.096949,1.030072,-3.244604,1.191228,-0.458252,-0.618164,0.833740
346,3137296013,9.292771,-2.896581,-1.157995,0.049733,-3.502332,1.432999,-0.461914,-0.620850,0.836670
347,3137312680,9.310824,-2.869549,-1.210869,0.618119,-1.980306,1.111544,-0.466309,-0.624512,0.835693
348,3137329347,9.234901,-2.834342,-1.146758,1.180393,-0.887326,1.218210,-0.466553,-0.623779,0.827393
349,3137346014,9.270549,-2.852385,-1.091224,0.526155,-1.181911,1.243465,-0.460938,-0.623535,0.833008
350,3137362681,9.315456,-2.939412,-1.155033,-0.225520,-1.335561,1.623141,-0.461914,-0.626465,0.829102
351,3137379348,9.292902,-2.986551,-1.115012,-0.300719,-3.342444,2.516057,-0.465576,-0.622803,0.832031
352,3137396015,9.321644,-3.039028,-1.099264,-0.888850,-3.773711,2.606521,-0.463623,-0.624512,0.832031
353,3137412682,9.363551,-2.942048,-1.154875,-0.845616,-2.779964,1.992009,-0.462891,-0.621826,0.828125
354,3137429349,9.291936,-2.835193,-1.186813,1.840868,-1.450358,1.981443,-0.460205,-0.625488,0.833984
355,3137446016,9.325872,-2.832740,-1.152739,2.824037,-0.782788,1.642446,-0.459229,-0.624512,0.833008
356,3137462683,9.293462,-2.842363,-1.186787,1.429656,-1.349751,1.054520,-0.463867,-0.625488,0.829102
357,3137479350,9.305246,-2.845730,-1.211644,0.951441,-2.615159,0.987030,-0.459229,-0.620850,0.832031
358,3137496017,9.362925,-2.907141,-1.139216,0.527410,-2.012838,1.089686,-0.461914,-0.624512,0.833008
359,3137512684,9.308755,-2.952782,-1.199354,0.245799,-2.375719,1.127823,-0.460205,-0.619141,0.830078
360,3137529351,9.217268,-2.958365,-1.249852,0.816360,-4.167993,1.183505,-0.455566,-0.626465,0.825684
361,3137546018,9.251820,-2.954865,-1.190564,2.790869,-3.448443,0.989246,-0.462891,-0.619873,0.834717
362,3137562685,9.264552,-2.996898,-1.186524,3.417765,-2.397976,1.201216,-0.462891,-0.620850,0.832764
363,3137579352,9.335880,-2.990778,-1.151897,2.949578,-1.475868,1.450236,-0.461914,-0.626221,0.836670
364,3137596019,9.348318,-2.946273,-1.154545,2.165573,-1.217692,2.174691,-0.460938,-0.620117,0.833740
365,3137612686,9.335251,-2.884508,-1.157123,0.798226,-1.960217,2.706257,-0.456543,-0.621826,0.833008
366,3137629353,9.265887,-2.811741,-1.212717,-0.519272,-1.471117,2.566809,-0.460205,-0.627197,0.830078
367,3137646020,9.243596,-2.688114,-1.276286,0.117710,-0.583573,2.050713,-0.460938,-0.619873,0.835693
368,3137662687,9.261148,-2.685007,-1.256326,0.529677,-1.035521,1.486298,-0.460205,-0.627197,0.830078
369,3137679354,9.344344,-2.755138,-1.220788,-0.330570,-3.234295,1.391801,-0.467285,-0.625488,0.832764
370,3137696021,9.362796,-2.948211,-1.129097,-1.361328,-4.247636,1.580003,-0.465576,-0.629150,0.833740
371,3137712688,9.357039,-3.097390,-1.107934,-1.837199,-1.976174,1.127234,-0.460938,-0.625488,0.831055
372,3137729355,9.314297,-3.066555,-1.122782,0.479950,0.145768,0.636149,-0.460938,-0.621826,0.833740
373,3137746022,9.292220,-2.962696,-1.131090,3.105149,0.396760,0.642642,-0.460205,-0.625488,0.829346
374,3137762689,9.289986,-2.934890,-1.182075,3.613190,-0.754140,0.408337,-0.460205,-0.626465,0.830078
375,3137779356,9.384056,-2.914594,-1.196437,2.690941,-1.032013,0.884861,-0.460938,-0.620850,0.830078
376,3137796023,9.302943,-2.884285,-1.125780,2.633120,-0.904269,1.575751,-0.456543,-0.618164,0.833740
377,3137812690,9.256438,-2.851964,-1.171812,0.815643,-0.571150,1.642254,-0.464600,-0.623535,0.832031
378,3137829357,9.245476,-2.839854,-1.193925,0.004501,-0.243242,1.121724,-0.465576,-0.624512,0.834717
379,3137846024,9.270791,-2.870706,-1.205409,0.214077,-0.411839,1.154396,-0.460938,-0.620850,0.831055
380,3137862691,9.279003,-2.979684,-1.233768,0.045366,-1.688197,1.364088,-0.461914,-0.620117,0.832764
381,3137879358,9.332502,-3.014587,-1.209340,0.681676,-3.121369,1.935789,-0.463867,-0.625488,0.831055
382,3137896025,9.382108,-3.007158,-1.141584,2.062047,-2.275637,2.042350,-0.461914,-0.623779,0.829102
383,3137912692,9.346502,-2.929026,-1.216325,2.163242,-1.101884,1.773737,-0.462891,-0.624512,0.828369
384,3137929359,9.304273,-2.845551,-1.171757,2.232102,-0.125528,1.537844,-0.461914,-0.624512,0.829102
385,3137946026,9.255183,-2.813961,-1.159782,1.032749,-0.584968,1.046439,-0.467285,-0.625488,0.833740
386,3137962693,9.284253,-2.807943,-1.139801,1.342419,-1.947244,0.609768,-0.463623,-0.623535,0.831055
387,3137979360,9.333035,-2.844587,-1.072919,1.348272,-1.867563,0.565868,-0.461914,-0.622803,0.832031
388,3137996027,9.333881,-2.941240,-1.103044,-0.231539,-1.289766,0.692177,-0.460938,-0.623779,0.829102
389,3138012694,9.294447,-2.968909,-1.180431,0.276163,-1.094571,0.830165,-0.460205,-0.624512,0.834717
390,3138029361,9.282274,-2.964879,-1.196832,1.310890,-1.083622,1.010491,-0.460938,-0.622803,0.828369
391,3138046028,9.276573,-2.953241,-1.140005,1.318395,-1.748502,1.262111,-0.461914,-0.621826,0.829102
392,3138062695,9.331719,-2.977227,-1.161548,1.035092,-1.068856,1.544631,-0.463867,-0.627441,0.826416
393,3138079362,9.290945,-2.957574,-1.159851,0.929696,-1.224940,1.726085,-0.457520,-0.625488,0.831055
394,3138096029,9.299232,-2.924138,-1.166079,1.041406,-1.087259,1.735715,-0.462891,-0.622803,0.824463
395,3138112696,9.288755,-2.861756,-1.189656,0.629938,-0.954982,1.918884,-0.461914,-0.623779,0.828369
396,3138129363,9.283574,-2.830521,-1.165889,0.297165,-1.171166,1.648939,-0.459229,-0.625488,0.829346
397,3138146030,9.330205,-2.825046,-1.186619,1.102608,-1.376490,1.393798,-0.463623,-0.623779,0.830078
398,3138162697,9.303992,-2.848007,-1.132513,1.484839,-1.295682,1.374077,-0.465576,-0.624512,0.827393
399,3138179364,9.353538,-2.924809,-1.102372,1.343405,-1.314175,1.247691,-0.466553,-0.623535,0.830078
400,3138196031,9.317331,-2.931674,-1.090754,1.451606,-1.149165,1.156241,-0.460938,-0.618164,0.831055
401,3138212698,9.322661,-2.938260,-1.050819,1.860936,-1.815441,1.138862,-0.458252,-0.626465,0.829346
402,3138229365,9.334707,-2.941255,-1.064434,2.408164,-1.246007,1.066750,-0.466553,-0.624512,0.831055
403,3138246032,9.309898,-2.906989,-1.109361,1.838909,-1.088181,0.976964,-0.461914,-0.620850,0.827393
404,3138262699,9.310198,-2.858576,-1.128998,1.966460,-1.012752,1.138696,-0.463623,-0.621826,0.833740
405,3138279366,9.281803,-2.822158,-1.108220,2.227325,-0.841095,1.277440,-0.465576,-0.626465,0.831055
406,3138296033,9.287775,-2.797419,-1.089787,0.603160,-1.429240,1.331777,-0.462891,-0.621826,0.832031
407,3138312700,9.294919,-2.846817,-1.065988,-1.087810,-1.525300,1.518494,-0.465576,-0.621826,0.829102
408,3138329367,9.290276,-2.954702,-1.057663,-2.212822,-1.610975,1.467877,-0.464600,-0.626465,0.831055
409,3138346034,9.271226,-2.989281,-1.086474,-1.517245,-1.624562,1.581706,-0.466553,-0.626465,0.830078
410,3138362701,9.263101,-3.000254,-1.105539,0.218380,-1.810837,1.762861,-0.464600,-0.625488,0.827393
411,3138379368,9.315278,-2.967396,-1.122301,1.664883,-1.755098,1.820122,-0.469238,-0.619873,0.831055
412,3138396035,9.382073,-2.909581,-1.134351,2.991493,-1.429701,1.799106,-0.460938,-0.621826,0.828369
413,3138412702,9.308383,-2.785400,-1.134131,2.846371,-1.539093,1.874382,-0.463867,-0.625488,0.830078
414,3138429369,9.339429,-2.735099,-1.064620,1.728633,-1.697712,1.882450,-0.465576,-0.625488,0.827393
415,3138446036,9.323167,-2.737071,-1.071008,-0.183336,-1.806835,1.214894,-0.462891,-0.629150,0.830078
416,3138462703,9.281749,-2.836977,-1.075439,-1.906597,-2.110768,0.748602,-0.466553,-0.626465,0.828125
417,3138479370,9.330679,-2.968967,-1.112488,-2.737229,-2.281272,0.392098,-0.462891,-0.626465,0.830078
418,3138496037,9.334083,-3.103362,-1.124897,-1.659626,-2.071568,0.567353,-0.461914,-0.628174,0.830078
419,3138512704,9.275463,-3.161855,-1.172511,0.953298,-2.358443,1.180880,-0.466553,-0.629150,0.828369
420,3138529371,9.253122,-3.084877,-1.201510,3.122758,-2.080904,1.400932,-0.464600,-0.629150,0.832031
421,3138546038,9.247798,-2.976232,-1.245781,4.277251,-1.660971,1.427044,-0.463623,-0.621826,0.829102
422,3138562705,9.251142,-2.917554,-1.225815,4.037337,-1.551771,1.458112,-0.466553,-0.624512,0.832764
423,3138579372,9.300490,-2.902498,-1.179636,2.728886,-1.682140,1.581450,-0.462891,-0.623535,0.832031
424,3138596039,9.307062,-2.909594,-1.157578,1.011273,-2.191038,1.665830,-0.460938,-0.621826,0.830078
425,3138612706,9.310820,-2.889947,-1.156963,0.880469,-2.476710,1.617743,-0.468262,-0.620850,0.829102
426,3138629373,9.317481,-2.835600,-1.116432,1.624185,-2.499569,1.705902,-0.464600,-0.624512,0.827393
427,3138646040,9.324783,-2.806179,-1.137312,2.602026,-2.049797,1.596100,-0.463623,-0.623779,0.830078
428,3138662707,9.325012,-2.800444,-1.123219,1.905988,-1.881253,1.149645,-0.463867,-0.624512,0.830078
429,3138679374,9.312993,-2.888287,-1.140827,0.903238,-1.880818,0.938699,-0.467285,-0.623535,0.832031
430,3138696041,9.301261,-2.967900,-1.125677,1.063996,-1.920978,0.858980,-0.460205,-0.621826,0.832031
431,3138712708,9.303220,-2.994503,-1.164595,1.742630,-2.047274,0.912382,-0.464600,-0.626465,0.830078
432,3138729375,9.311113,-2.984103,-1.151616,2.659770,-2.185941,1.144356,-0.460205,-0.625488,0.830078
433,3138746042,9.303380,-2.940802,-1.142932,2.863865,-1.949152,1.253108,-0.463623,-0.620850,0.832031
434,3138762709,9.294484,-2.887410,-1.171234,2.421226,-1.808308,1.394451,-0.460938,-0.625488,0.838623
435,3138779376,9.306701,-2.851824,-1.154960,2.280830,-1.584312,1.301273,-0.466553,-0.627197,0.830078
436,3138796043,9.284095,-2.822963,-1.147364,0.998479,-1.720046,1.598623,-0.463623,-0.620850,0.832031
437,3138812710,9.262867,-2.867586,-1.163221,0.271533,-1.919364,1.644681,-0.460205,-0.622803,0.833740
438,3138829377,9.239100,-2.934379,-1.178715,0.069545,-2.251971,1.689715,-0.463623,-0.623535,0.834717
439,3138846044,9.293839,-2.995561,-1.170802,0.197199,-2.793590,1.738647,-0.468262,-0.622803,0.832764
440,3138862711,9.309216,-3.012732,-1.154141,0.440711,-2.391406,1.599571,-0.460205,-0.622803,0.833008
441,3138879378,9.266301,-3.025874,-1.155985,1.255133,-2.079358,1.939130,-0.460205,-0.624512,0.833008
442,3138896045,9.309139,-3.007729,-1.156443,2.274632,-2.062526,1.792370,-0.468262,-0.624512,0.836670
443,3138912712,9.430166,-2.947855,-1.200489,2.625884,-1.621630,1.516598,-0.461914,-0.622803,0.832031
444,3138929379,9.445652,-2.909673,-1.162484,1.800560,-0.536855,1.710698,-0.466553,-0.622803,0.831055
445,3138946046,9.259105,-2.906726,-1.181705,-0.245587,-0.429333,1.813321,-0.460938,-0.628174,0.836670
446,3138962713,9.195822,-2.851222,-1.186765,0.438432,-1.107429,1.179996,-0.470947,-0.623535,0.831055
447,3138979380,9.233754,-2.788800,-1.227817,1.132203,-1.616968,0.426343,-0.461182,-0.627197,0.829346
448,3138996047,9.303314,-2.899716,-1.236218,1.474901,-1.848943,-0.031862,-0.464600,-0.623535,0.831055
449,3139012714,9.371434,-3.066010,-1.209609,1.798402,-2.461944,0.286728,-0.463623,-0.621826,0.832764
450,3139029381,9.320045,-3.101299,-1.193301,2.677161,-2.485021,0.625584,-0.463867,-0.624512,0.830078
451,3139046048,9.257137,-3.033916,-1.175288,4.210517,-1.942109,1.066660,-0.457520,-0.626465,0.832031
452,3139062715,9.251669,-2.944020,-1.129053,5.964655,-1.808398,1.272548,-0.463623,-0.615479,0.829102
453,3139079382,9.261665,-2.893554,-1.112145,5.866711,-1.682447,1.173350,-0.462891,-0.619873,0.835693
454,3139096049,9.305768,-2.946669,-1.112628,4.181921,-1.913884,1.298673,-0.466309,-0.619141,0.837402
455,3139112716,9.334678,-3.005883,-1.069949,2.869743,-1.672023,1.615976,-0.459229,-0.620117,0.833008
456,3139129383,9.297023,-3.039899,-1.096266,-0.225456,-1.494424,1.717658,-0.464600,-0.620850,0.834717
457,3139146050,9.239042,-2.986082,-1.210743,-0.278180,-2.064153,1.536679,-0.460205,-0.621826,0.833740
458,3139162717,9.258780,-2.900915,-1.152843,1.129552,-2.209095,1.676242,-0.461914,-0.622803,0.834717
459,3139179384,9.259220,-2.906251,-1.190172,1.149184,-1.883660,1.853111,-0.467285,-0.619141,0.837402
460,3139196051,9.301900,-2.936333,-1.208019,1.386127,-1.868728,1.914696,-0.461914,-0.613525,0.836426
461,3139212718,9.381663,-2.984689,-1.137553,0.289929,-1.748464,1.974361,-0.466309,-0.618164,0.833740
462,3139229385,9.309133,-3.063178,-1.167694,-2.287842,-2.077869,2.023064,-0.461914,-0.621826,0.834717
463,3139246052,9.266966,-3.081333,-1.217159,-1.367628,-2.438892,1.937517,-0.463623,-0.624512,0.835693
464,3139262719,9.288889,-3.017111,-1.169847,1.645763,-1.816453,1.821018,-0.463623,-0.621826,0.835693
465,3139279386,9.260663,-2.975833,-1.180805,3.102358,-1.622693,1.768576,-0.464600,-0.620850,0.834717
466,3139296053,9.262785,-2.912582,-1.223378,4.417557,-1.738475,1.803013,-0.460205,-0.619141,0.840332
467,3139312720,9.232067,-2.860771,-1.240678,4.849041,-1.686891,1.927657,-0.461914,-0.614502,0.834717
468,3139329387,9.225158,-2.834334,-1.211736,4.565342,-2.297792,2.012819,-0.461914,-0.615479,0.835693
469,3139346054,9.302581,-2.871100,-1.132308,3.706676,-2.566610,1.995697,-0.463623,-0.615479,0.838379
470,3139362721,9.290124,-2.979215,-1.226838,1.976961,-2.838182,1.935610,-0.462646,-0.618164,0.844971
471,3139379388,9.243102,-2.980085,-1.169883,2.632621,-2.787597,2.274939,-0.460938,-0.618164,0.837402
472,3139396055,9.274903,-2.969670,-1.159139,3.199673,-2.721362,2.379478,-0.461914,-0.614502,0.833740
473,3139412722,9.354193,-2.931652,-1.149595,3.448114,-2.133500,2.093527,-0.462891,-0.615479,0.838379
474,3139429389,9.338103,-2.928282,-1.176213,2.499550,-2.293669,2.045847,-0.463623,-0.614502,0.840332
475,3139446056,9.348044,-2.937281,-1.109527,2.718718,-2.224758,2.134735,-0.459961,-0.613525,0.840332
476,3139462723,9.323831,-2.934433,-1.161254,1.420269,-2.375130,1.518775,-0.459961,-0.615479,0.841309
477,3139479390,9.261985,-2.949843,-1.173759,1.560038,-2.493550,1.128297,-0.461914,-0.612793,0.836426
478,3139496057,9.283095,-2.960865,-1.187443,2.162141,-2.390139,1.005740,-0.463623,-0.610840,0.840088
479,3139512724,9.322381,-2.981424,-1.173735,3.271542,-1.417151,0.890931,-0.459961,-0.611816,0.838379
480,3139529391,9.308986,-2.970524,-1.145302,2.897123,-1.935705,1.099022,-0.462646,-0.612549,0.841064
481,3139546058,9.255404,-2.950464,-1.136899,3.405688,-1.867998,1.504522,-0.459229,-0.607178,0.838379
482,3139562725,9.233188,-2.889232,-1.124368,3.707752,-1.941635,1.561946,-0.464600,-0.610840,0.842041
483,3139579392,9.278643,-2.870642,-1.116872,3.198444,-1.736926,1.570565,-0.459961,-0.610840,0.842041
484,3139596059,9.314847,-2.901966,-1.128431,0.489798,-1.522214,1.628769,-0.465332,-0.612549,0.843018
485,3139612726,9.302896,-2.942962,-1.188399,-1.999801,-2.218495,1.928271,-0.464600,-0.610840,0.842041
486,3139629393,9.287355,-2.910557,-1.157628,-1.958642,-2.520841,2.138603,-0.463623,-0.609863,0.843994
487,3139646060,9.243382,-2.893033,-1.164275,-1.669667,-2.542535,2.339227,-0.458252,-0.614502,0.838379
488,3139662727,9.235035,-2.929446,-1.204983,0.046942,-2.613699,2.169146,-0.464600,-0.614502,0.841064
489,3139679394,9.273164,-2.926931,-1.250457,0.972713,-2.228753,1.766438,-0.462646,-0.609131,0.840088
490,3139696061,9.273042,-3.006340,-1.198410,0.660789,-2.672814,1.478525,-0.461914,-0.613525,0.841064
491,3139712728,9.315932,-3.057931,-1.198019,1.222821,-2.555392,1.453399,-0.458252,-0.609131,0.839355
492,3139729395,9.345903,-3.046112,-1.164447,1.294549,-2.086731,1.732052,-0.460938,-0.611816,0.840332
493,3139746062,9.319712,-3.037980,-1.150203,0.330654,-2.827015,1.829842,-0.459229,-0.616211,0.842041
494,3139762729,9.318681,-3.012371,-1.187263,0.075756,-3.200358,1.841662,-0.461914,-0.608154,0.840088
495,3139779396,9.308630,-2.968907,-1.189637,0.910179,-2.886026,2.067028,-0.462646,-0.608887,0.843018
496,3139796063,9.291914,-2.905044,-1.185533,1.422408,-2.154220,2.164356,-0.453857,-0.611816,0.843018
497,3139812730,9.260082,-2.925164,-1.268203,1.279707,-1.988288,1.915311,-0.462646,-0.614502,0.841064
498,3139829397,9.184162,-2.940189,-1.258213,3.479799,-3.472224,1.825321,-0.458252,-0.615234,0.847656
499,3139846064,9.196788,-2.945096,-1.179501,3.610526,-5.861620,2.464384,-0.461914,-0.605469,0.843994
500,3139862731,9.339484,-3.036381,-1.254059,1.164270,-6.270439,2.455458,-0.458252,-0.608154,0.847656
501,3139879398,9.329056,-3.106690,-1.417458,1.930231,-4.073853,3.131684,-0.459229,-0.609863,0.844971
502,3139896065,9.256691,-3.044698,-1.287989,4.435895,-3.626489,4.295115,-0.458252,-0.608887,0.849609
503,3139912732,9.266182,-3.027765,-1.178497,4.146895,-4.933045,4.796203,-0.455566,-0.607178,0.848633
504,3139929399,9.211550,-3.045254,-1.322682,4.010587,-6.977685,5.162066,-0.454590,-0.609863,0.852295
505,3139946066,9.295466,-3.044295,-1.390821,5.619037,-6.378934,6.051738,-0.461914,-0.608154,0.847656
506,3139962733,9.262059,-3.047626,-1.315924,6.594332,-3.674758,6.530031,-0.456299,-0.606201,0.850342
507,3139979400,9.232892,-3.064414,-1.214933,6.987920,-2.161354,6.045989,-0.461670,-0.599854,0.854004
508,3139996067,9.238027,-3.032958,-1.273391,2.001127,-4.101849,5.401252,-0.460938,-0.597900,0.850342
509,3140012734,9.294506,-3.085858,-1.422302,-2.899038,-1.995139,4.209530,-0.458984,-0.599854,0.853027
510,3140029401,9.235260,-3.080912,-1.244370,-3.207376,-0.076339,3.271171,-0.458984,-0.602539,0.851318
511,3140046068,9.245540,-3.123571,-1.311413,-2.099947,-0.076992,2.463692,-0.458984,-0.604248,0.854004
512,3140062735,9.218915,-3.200989,-1.296592,2.950270,1.075138,2.269471,-0.464355,-0.599854,0.848389
513,3140079402,9.090057,-3.339240,-1.146500,3.802763,-0.672999,1.137992,-0.462646,-0.600830,0.850342
514,3140096069,9.198854,-3.327235,-1.304829,4.511799,-1.035317,0.703600,-0.462646,-0.599854,0.846680
515,3140112736,9.206520,-3.146662,-1.269018,9.373399,-1.266638,2.547305,-0.460938,-0.594238,0.854980
516,3140129403,9.262014,-3.058657,-1.212952,8.799777,-2.669203,4.431018,-0.458252,-0.596191,0.852295
517,3140146070,9.504889,-3.060924,-1.087722,2.725364,-4.392142,4.367497,-0.462646,-0.595215,0.854980
518,3140162737,9.506301,-3.147816,-1.359418,-2.498135,-1.523239,3.374735,-0.460938,-0.591553,0.852051
519,3140179404,9.099209,-3.274640,-1.479541,-2.431350,2.898397,2.421514,-0.464355,-0.596191,0.846436
520,3140196071,9.432468,-3.216510,-1.447369,2.461041,2.476716,3.880023,-0.462646,-0.594238,0.853027
521,3140212738,9.151561,-3.139527,-1.174798,3.093969,0.528384,5.369773,-0.462646,-0.590820,0.848389
522,3140229405,8.953654,-3.062864,-1.106986,-1.160845,-3.091120,3.957477,-0.468994,-0.595215,0.852051
523,3140246072,8.990735,-2.895977,-1.235690,-0.761094,-1.494911,1.407488,-0.466309,-0.594238,0.851074
524,3140262739,8.951968,-2.904324,-1.303080,2.661512,-0.990213,-0.781623,-0.466309,-0.595215,0.852051
525,3140279406,9.074211,-3.010122,-1.299343,3.911373,-1.135309,-1.513070,-0.464355,-0.593506,0.852051
526,3140296073,9.086569,-3.062489,-1.208117,4.503795,-2.094927,-1.158936,-0.467041,-0.595215,0.854004
527,3140312740,9.138137,-3.066156,-1.267821,0.771410,-2.715164,-1.354336,-0.465332,-0.588867,0.852051
528,3140329407,9.115515,-2.987298,-1.363032,-0.343428,-4.805865,-1.541539,-0.458984,-0.591553,0.852051
529,3140346074,9.322653,-2.861950,-1.180972,-3.621687,-3.144945,-0.822846,-0.462646,-0.597168,0.851318
530,3140362741,9.283701,-3.005296,-1.170650,-6.625212,-0.512036,-0.573609,-0.464600,-0.602539,0.850342
531,3140379408,9.276030,-3.061312,-1.285907,-8.315882,-2.057212,-0.873035,-0.458984,-0.599854,0.848389
532,3140396075,9.273177,-3.207385,-1.258762,-9.837151,-1.307734,-2.004912,-0.461914,-0.606201,0.844727
533,3140412742,9.225493,-3.363671,-1.414782,-7.806457,-0.665917,-3.004165,-0.459229,-0.608887,0.843994
534,3140429409,9.151760,-3.496765,-1.411971,-6.299944,-1.970513,-4.538264,-0.459961,-0.607178,0.847656
535,3140446076,9.331057,-3.576788,-1.494597,-2.574985,-2.460874,-4.135050,-0.457275,-0.608154,0.841064
536,3140462743,9.365591,-3.490149,-1.436937,5.364318,-2.382673,-2.186339,-0.459229,-0.611816,0.845703
537,3140479410,9.192282,-3.425544,-1.381280,6.075711,-2.436318,-2.015310,-0.454590,-0.605469,0.844971
538,3140496077,9.215818,-3.167391,-1.326600,6.443330,-0.854235,-2.253137,-0.452881,-0.607178,0.842041
539,3140512744,9.187128,-2.934764,-1.228247,7.984409,1.091915,-1.807770,-0.457275,-0.607178,0.843994
540,3140529411,9.173800,-2.890068,-1.240382,7.114318,1.216571,-1.252487,-0.454590,-0.605225,0.849609
541,3140546078,9.171820,-2.863023,-1.198400,5.398126,-1.281224,-0.219526,-0.458252,-0.602539,0.847656
542,3140562745,9.264488,-2.867398,-1.122009,2.782186,-0.267717,1.557720,-0.458252,-0.606201,0.847656
543,3140579412,9.180696,-2.957430,-1.009258,-2.297357,-3.276326,2.461426,-0.459961,-0.604492,0.844727
544,3140596079,9.304027,-3.048527,-1.064238,-4.818480,-2.146588,1.864880,-0.456299,-0.606201,0.845703
545,3140612746,9.226028,-3.124348,-1.211868,-7.166638,-0.910160,1.389892,-0.453857,-0.609863,0.844971
546,3140629413,9.243704,-3.119059,-1.320240,-3.967779,-2.091956,1.789732,-0.454590,-0.611572,0.849609
547,3140646080,9.359196,-3.062135,-1.340157,-1.317479,-0.644198,2.146555,-0.457275,-0.613525,0.847656
548,3140662747,9.331314,-2.894630,-1.322764,2.662127,-2.051667,2.783172,-0.456543,-0.614502,0.847656
549,3140679414,9.277038,-2.855105,-1.198626,3.351134,-2.138789,2.694796,-0.455566,-0.610840,0.842041
550,3140696081,9.237895,-2.850665,-1.282806,1.139669,-1.707138,0.883414,-0.460938,-0.608887,0.845703
551,3140712748,9.174761,-2.879148,-1.221148,1.847348,-2.467169,-0.268690,-0.461914,-0.606201,0.842041
552,3140729415,9.284484,-2.867904,-1.257091,3.055179,-3.586432,-0.603448,-0.455566,-0.609863,0.846680
553,3140746082,9.323282,-2.964194,-1.348636,3.935462,-2.976017,-0.034308,-0.455566,-0.608154,0.843994
554,3140762749,9.398883,-3.006004,-1.329609,4.053395,-1.413949,1.354316,-0.454590,-0.608154,0.847656
555,3140779416,9.321883,-3.006769,-1.206214,2.570305,0.795127,1.531710,-0.455566,-0.611816,0.845947
556,3140796083,9.135368,-3.003643,-1.093744,0.037580,-0.885162,1.072500,-0.459229,-0.608887,0.844971
557,3140812750,9.143795,-3.049467,-1.224859,-0.401633,-2.192626,0.359468,-0.454590,-0.609863,0.845947
558,3140829417,9.306501,-3.050539,-1.368296,0.933346,-2.700872,0.771243,-0.451904,-0.608887,0.846924
559,3140846084,9.385533,-3.011540,-1.419462,2.802266,-1.594122,1.968253,-0.451904,-0.609863,0.847656
560,3140862751,9.228818,-3.068786,-1.257120,1.367136,-0.994080,2.669400,-0.459229,-0.611816,0.845703
561,3140879418,9.191767,-3.116521,-1.236121,-3.108319,-0.241297,1.205020,-0.455566,-0.608154,0.847656
562,3140896085,9.133745,-3.009818,-1.335598,-1.916547,-1.715577,1.045440,-0.457275,-0.612549,0.843018
563,3140912752,9.169458,-3.073494,-1.303341,2.056476,-3.115273,2.007568,-0.453857,-0.613525,0.843018
564,3140929419,9.303004,-3.147038,-1.372484,2.823691,-2.896271,1.801885,-0.455566,-0.609131,0.841309
565,3140946086,9.364367,-3.033761,-1.454289,2.965483,-0.854555,1.980534,-0.453857,-0.611816,0.844971
566,3140962753,9.307212,-2.934618,-1.280152,4.324059,0.250153,1.838819,-0.452881,-0.607178,0.849609
567,3140979420,9.196504,-2.940379,-1.198287,0.290309,-0.043334,1.245260,-0.457275,-0.606201,0.850342
568,3140996087,9.211128,-2.973317,-1.423803,-0.269343,-2.453517,0.473035,-0.455566,-0.609863,0.843018
569,3141012754,9.313227,-2.963171,-1.346974,1.918782,-1.794246,0.114444,-0.458252,-0.609863,0.844971
570,3141029421,9.319707,-3.063409,-1.220255,0.078317,-3.350372,0.445501,-0.451904,-0.610840,0.846924
571,3141046088,9.355579,-3.103234,-1.369419,-0.563262,-3.011657,0.409566,-0.454590,-0.609131,0.843994
572,3141062755,9.219251,-3.083792,-1.426163,2.483260,0.342973,0.639235,-0.453613,-0.606201,0.845947
573,3141079422,9.188734,-3.025999,-1.256984,5.397870,1.256642,1.110791,-0.455566,-0.608887,0.846680
574,3141096089,9.217841,-2.982013,-1.112012,6.979467,0.624111,1.754092,-0.455566,-0.609863,0.846680
575,3141112756,9.222943,-2.978792,-1.278819,5.057453,-0.445879,1.914851,-0.456543,-0.608154,0.842041
576,3141129423,9.279310,-2.913849,-1.266168,2.805442,-2.529933,1.725483,-0.456299,-0.605225,0.848633
577,3141146090,9.211385,-2.884775,-1.237826,-0.357003,-2.326875,1.486619,-0.454590,-0.604492,0.850342
578,3141162757,9.192036,-2.887873,-1.241624,-0.698510,-2.369879,0.972239,-0.459229,-0.608887,0.847656
579,3141179424,9.291358,-2.965868,-1.392482,-0.332145,0.302595,0.986018,-0.459229,-0.607178,0.843994
580,3141196091,9.281367,-3.039092,-1.381341,0.073515,-1.656988,1.531018,-0.453613,-0.605225,0.848633
581,3141212758,9.301452,-3.016693,-1.289454,1.043199,-1.949498,1.432256,-0.459229,-0.604492,0.845703
582,3141229425,9.188684,-3.081772,-1.205086,2.264707,-1.725835,0.083747,-0.459229,-0.605469,0.843994
583,3141246092,9.246045,-3.082689,-1.252685,2.835179,-2.679652,-0.263926,-0.458252,-0.608887,0.843018
584,3141262759,9.377897,-3.094814,-1.446722,4.859030,-0.602603,0.443324,-0.456543,-0.611816,0.846680
585,3141279426,9.284460,-3.075533,-1.310322,8.155106,0.659649,0.873541,-0.456299,-0.607178,0.845703
586,3141296093,9.185885,-3.079752,-1.146962,4.398386,-1.352889,0.482409,-0.456299,-0.603516,0.850342
587,3141312760,9.204618,-3.046458,-1.126855,3.007501,-2.139378,-0.179865,-0.455566,-0.605225,0.853271
588,3141329427,9.209108,-3.083234,-1.136670,4.161865,-1.218204,-0.241579,-0.454590,-0.606201,0.845703
589,3141346094,9.304976,-3.096869,-1.236861,5.488129,-1.119441,0.250242,-0.456299,-0.605225,0.850342
590,3141362761,9.291259,-3.078939,-1.299866,5.688575,-0.495734,1.205596,-0.459961,-0.604492,0.848633
591,3141379428,9.206015,-3.065276,-1.154018,5.505885,-1.911975,0.653623,-0.452881,-0.603516,0.849609
592,3141396095,9.229942,-3.006284,-1.309201,1.280232,-1.757480,0.074245,-0.451904,-0.603516,0.851318
593,3141412762,9.310213,-2.869484,-1.298339,2.052813,-1.288319,0.806922,-0.456299,-0.601562,0.849365
594,3141429429,9.291563,-2.872801,-1.121851,3.386569,-0.857116,0.699374,-0.454590,-0.603516,0.848633
595,3141446096,9.262744,-2.909596,-1.123309,2.065888,-0.788423,0.122922,-0.454590,-0.598145,0.849365
596,3141462763,9.285687,-3.025023,-1.124370,0.806000,0.332664,-0.359141,-0.455566,-0.599854,0.848633
597,3141479430,9.254559,-3.125266,-1.178220,3.192322,1.645482,-0.260737,-0.458252,-0.600830,0.848633
598,3141496097,9.324533,-3.058408,-1.232671,3.898397,-1.087360,0.648840,-0.457275,-0.601807,0.848633
599,3141512764,9.382064,-3.031609,-1.122297,4.607987,-1.356449,1.240109,-0.454590,-0.595215,0.851318
600,3141529431,9.287992,-3.005899,-1.068033,2.454267,-1.168272,0.594400,-0.455566,-0.597168,0.850342
601,3141546098,9.226130,-2.966256,-1.184538,2.054042,-0.090912,0.028923,-0.455566,-0.598877,0.852295
602,3141562765,9.150272,-2.914258,-1.236088,4.026745,0.675849,-0.020900,-0.452881,-0.600830,0.848633
603,3141579432,9.203154,-2.945461,-1.226219,5.497209,-0.264541,0.301545,-0.456299,-0.599854,0.850342
604,3141596099,9.398335,-2.964523,-1.252183,4.832688,-3.308355,2.173667,-0.458984,-0.602539,0.851318
605,3141612766,9.402512,-3.025811,-1.135869,2.896585,-3.429874,2.917959,-0.462646,-0.599854,0.857666
606,3141629433,9.235593,-3.034696,-1.084692,-0.947145,-2.459626,2.452730,-0.455566,-0.597168,0.848633
607,3141646100,9.220183,-2.929155,-1.177407,-0.576990,-0.385356,0.975863,-0.456299,-0.598877,0.850342
608,3141662767,9.262341,-2.892091,-1.189835,0.659751,1.367878,0.018038,-0.452637,-0.596191,0.853271
609,3141679434,9.310060,-2.929814,-1.243207,2.223458,1.369389,-0.095625,-0.456299,-0.598877,0.854980
610,3141696101,9.358614,-2.941770,-1.200551,2.150935,0.290928,1.102211,-0.459961,-0.598877,0.848389
611,3141712768,9.280553,-2.993997,-1.141839,2.209178,-1.349482,1.532299,-0.456299,-0.590820,0.852051
612,3141729435,9.228703,-3.054866,-1.113083,1.766540,-1.463202,0.980384,-0.458984,-0.598877,0.848389
613,3141746102,9.225150,-3.065697,-1.123025,2.389915,-0.570228,0.493448,-0.461670,-0.599854,0.850342
614,3141762769,9.250910,-3.016905,-1.095936,4.287457,0.114213,0.210645,-0.458984,-0.596191,0.852295
615,3141779436,9.362359,-2.971946,-1.056562,4.729097,0.086949,0.551435,-0.458984,-0.594482,0.851318
616,3141796103,9.388831,-2.900614,-1.109647,3.013456,-1.440791,2.252618,-0.454590,-0.597168,0.854004
617,3141812770,9.307306,-2.874183,-1.123095,1.179062,-3.243977,2.906459,-0.451904,-0.593506,0.852295
618,3141829437,9.188379,-2.919236,-1.092999,-1.469195,-2.280939,1.799388,-0.456299,-0.598877,0.852295
619,3141846104,9.168021,-2.949391,-1.190080,-1.466635,-0.558011,0.448318,-0.458252,-0.598145,0.847656
620,3141862771,9.189669,-2.954223,-1.170246,0.044470,0.133282,0.073259,-0.457275,-0.597168,0.853027
621,3141879438,9.275283,-3.068417,-1.207914,1.931921,-0.840045,-0.126988,-0.457275,-0.598145,0.849365
622,3141896105,9.422818,-3.089636,-1.235085,3.623166,-1.636972,1.467742,-0.455566,-0.596191,0.852295
623,3141912772,9.371771,-3.099526,-1.091516,2.742038,-1.139624,3.362621,-0.457275,-0.595215,0.849365
624,3141929439,9.254640,-3.092489,-1.075400,0.510429,-2.248129,2.730128,-0.458252,-0.597168,0.849365
625,3141946106,9.249156,-2.943622,-1.058562,1.376996,-0.488140,1.346287,-0.459961,-0.596191,0.854004
626,3141962773,9.222528,-2.803515,-1.109882,2.761786,0.817653,0.985455,-0.460938,-0.594482,0.852051
627,3141979440,9.248421,-2.875753,-1.095604,1.454692,-0.138590,0.539167,-0.458984,-0.596191,0.852295
628,3141996107,9.340239,-2.932182,-1.135949,0.944180,-2.919348,0.943668,-0.458984,-0.597900,0.852295
629,3142012774,9.382163,-2.955537,-1.032704,0.707865,-4.158465,1.926799,-0.456299,-0.598877,0.851318
630,3142029441,9.295497,-3.122151,-1.108788,-0.073747,-1.906738,1.502972,-0.458252,-0.597168,0.855957
631,3142046108,9.242413,-3.134308,-1.227894,0.147228,-0.751425,0.556109,-0.457275,-0.597168,0.850342
632,3142062775,9.236094,-3.062049,-1.192593,2.553452,-0.173744,0.434206,-0.458984,-0.596191,0.850342
633,3142079442,9.334950,-3.034967,-1.054069,4.728572,-0.110877,0.829589,-0.459961,-0.594482,0.851318
634,3142096109,9.304016,-3.020530,-1.031545,2.405064,-1.654196,1.741567,-0.458252,-0.597168,0.851318
635,3142112776,9.323660,-2.998878,-1.102951,0.438726,-2.328822,2.220870,-0.457275,-0.590820,0.851318
636,3142129443,9.248150,-2.996684,-1.111141,0.838643,-0.498052,1.651744,-0.461670,-0.597168,0.854980
637,3142146110,9.198667,-2.928397,-1.132773,0.744311,-0.161744,1.021031,-0.464355,-0.588867,0.848389
638,3142162777,9.268020,-2.913520,-1.249285,-0.097533,-1.879895,0.899435,-0.461670,-0.597168,0.850342
639,3142179444,9.386822,-2.947657,-1.033341,1.323447,-2.921846,1.851850,-0.458252,-0.593506,0.853027
640,3142196111,9.314495,-2.992566,-0.986945,0.442978,-3.296841,2.593472,-0.463623,-0.595215,0.851074
641,3142212778,9.220905,-3.054446,-1.137748,-0.040571,-1.961305,1.841342,-0.456299,-0.596191,0.847656
642,3142229445,9.203800,-3.067693,-1.167928,1.225958,0.151787,0.636495,-0.459961,-0.596191,0.851318
643,3142246112,9.233765,-3.003123,-1.124780,1.692737,1.298558,0.097155,-0.459961,-0.594482,0.852051
644,3142262779,9.342013,-3.014104,-1.160053,2.178136,-0.236700,0.126085,-0.458252,-0.596191,0.848389
645,3142279446,9.416430,-3.024915,-1.120797,3.259031,-0.743447,1.128131,-0.458984,-0.589844,0.847412
646,3142296113,9.300476,-3.043628,-1.089272,1.399638,-2.001556,2.000947,-0.458984,-0.596191,0.852295
647,3142312780,9.191027,-3.000466,-1.166367,1.097805,-2.015041,1.793356,-0.458984,-0.596191,0.848389
648,3142329447,9.216569,-2.856411,-1.177514,2.927909,-0.485706,1.093605,-0.459961,-0.595215,0.849365
649,3142346114,9.251418,-2.814729,-1.115438,2.068539,-0.366236,0.788148,-0.461670,-0.593506,0.851318
650,3142362781,9.281545,-2.965378,-1.094593,-0.307391,-0.789025,0.642488,-0.458984,-0.592529,0.849365
651,3142379448,9.276582,-3.037571,-1.118558,-0.133724,-1.403486,1.364075,-0.461670,-0.593506,0.844727
652,3142396115,9.284452,-3.008687,-1.046212,1.773379,-2.422270,2.634785,-0.461670,-0.599854,0.844727
653,3142412782,9.295153,-3.027982,-0.973000,0.465902,-2.134537,3.374211,-0.460938,-0.597168,0.850342
654,3142429449,9.306197,-3.040914,-1.106733,-1.247966,-2.580390,2.399455,-0.463623,-0.598877,0.852051
655,3142446116,9.316214,-3.038245,-1.098536,-1.443404,-1.125204,1.438006,-0.459961,-0.595215,0.847412
656,3142462783,9.234524,-3.080953,-1.072143,-1.311729,0.083401,1.098445,-0.460938,-0.596191,0.848389
657,3142479450,9.284342,-3.143000,-1.156463,0.326863,-0.079451,0.630770,-0.460938,-0.595215,0.845703
658,3142496117,9.346176,-3.041301,-1.221077,4.355625,-1.349789,1.040983,-0.460938,-0.598145,0.848389
659,3142512784,9.360136,-2.971107,-1.162432,5.588096,-1.450255,1.712536,-0.460938,-0.596191,0.846680
660,3142529451,9.323906,-3.035268,-1.123564,2.747212,-0.347411,1.795905,-0.464355,-0.595215,0.846436
661,3142546118,9.217337,-3.036740,-1.189816,2.476196,-0.701234,0.687474,-0.459961,-0.593506,0.851318
662,3142562785,9.206014,-2.943254,-1.132838,2.705233,0.161853,-0.168532,-0.465332,-0.591553,0.851074
663,3142579452,9.168795,-2.977301,-1.096967,2.355338,-0.568576,-0.833770,-0.465332,-0.592529,0.848389
664,3142596119,9.261203,-3.031214,-1.098959,3.086119,-1.575053,-0.994080,-0.465332,-0.596191,0.850342
665,3142612786,9.265378,-3.076067,-1.030771,4.071312,-3.726943,0.396529,-0.462646,-0.592529,0.852051
666,3142629453,9.353816,-3.116957,-0.983164,2.848113,-3.746203,1.286519,-0.461670,-0.590820,0.850342
667,3142646120,9.332837,-3.079570,-1.000969,2.375828,-1.538030,1.029509,-0.462646,-0.594482,0.850342
668,3142662787,9.266668,-2.937639,-0.939916,1.697424,-0.586108,0.655435,-0.464355,-0.591553,0.853027
669,3142679454,9.307945,-2.896982,-0.933984,-0.349511,-0.422008,0.348826,-0.456299,-0.589844,0.851318
670,3142696121,9.397707,-2.909962,-0.996836,-0.773632,-1.076809,0.662837,-0.466309,-0.599854,0.849365
671,3142712788,9.427492,-3.007109,-1.088728,-0.362753,-3.419501,1.532491,-0.460938,-0.595215,0.846680
672,3142729455,9.300385,-3.114941,-1.061056,0.285204,-2.112343,1.728108,-0.460938,-0.593506,0.848389
673,3142746122,9.051234,-3.105355,-1.145606,1.443884,-2.641515,0.935638,-0.461670,-0.588867,0.849365
674,3142762789,9.141206,-3.021257,-1.227946,3.641570,-1.577013,0.150558,-0.461670,-0.595215,0.849365
675,3142779456,9.188349,-3.044353,-1.186113,4.250229,-0.149757,-0.442600,-0.457275,-0.596191,0.852295
676,3142796123,9.260073,-3.057781,-1.171303,3.025238,-0.143047,-0.523805,-0.461670,-0.596191,0.851318
677,3142812790,9.341762,-3.055721,-1.131218,3.811932,-0.659284,0.676604,-0.462646,-0.591553,0.849365
678,3142829457,9.332026,-2.951286,-1.058331,5.394708,-2.487979,2.289667,-0.458984,-0.592529,0.853027
679,3142846124,9.256283,-2.940712,-0.993783,3.675493,-2.364231,2.288860,-0.458984,-0.588135,0.851074
680,3142862791,9.239040,-2.923771,-1.079674,3.327237,-1.965506,1.069004,-0.459961,-0.592529,0.847412
681,3142879458,9.290047,-2.857680,-1.046211,4.271461,-1.065706,0.419530,-0.456299,-0.588867,0.850342
682,3142896125,9.304602,-2.862560,-1.010197,3.393830,-1.211199,0.870787,-0.464355,-0.589844,0.852051
683,3142912792,9.331246,-2.864335,-0.934173,2.643903,-3.070694,1.554723,-0.460938,-0.593506,0.855957
684,3142929459,9.372334,-2.897890,-1.014886,0.793347,-3.254414,1.357339,-0.461670,-0.587891,0.857666
685,3142946126,9.346376,-2.930944,-1.072474,0.668190,-2.362887,1.145855,-0.460938,-0.587891,0.851074
686,3142962793,9.336483,-2.994195,-1.003900,1.433857,-0.816098,1.372322,-0.457275,-0.591553,0.852051
687,3142979460,9.276349,-2.981920,-1.047993,1.761674,-1.917508,1.427069,-0.456299,-0.588135,0.851318
688,3142996127,9.325088,-2.942662,-1.042795,3.953366,-2.841179,1.400496,-0.458008,-0.588867,0.854980
689,3143012794,9.270434,-2.965144,-1.090353,1.938530,-3.157892,1.541917,-0.457275,-0.591553,0.852051
690,3143029461,9.262669,-2.968382,-1.098899,0.217573,-2.424639,1.281435,-0.457275,-0.590820,0.852051
691,3143046128,9.207593,-3.008442,-1.085624,0.241829,-1.682460,0.373811,-0.457275,-0.592529,0.857666
692,3143062795,9.251288,-3.093854,-1.181539,2.085098,-1.125857,-0.026087,-0.460693,-0.586182,0.856689
693,3143079462,9.347059,-3.033022,-1.136223,4.073040,-2.020337,1.412667,-0.456299,-0.589844,0.856689
694,3143096129,9.337844,-3.029549,-1.082909,5.209169,-2.409195,2.507067,-0.461670,-0.590576,0.855713
695,3143112796,9.256643,-3.013584,-1.128572,2.393052,-3.314860,2.385074,-0.457275,-0.587891,0.857666
696,3143129463,9.252061,-2.902968,-1.115632,0.838477,-0.713736,1.991445,-0.459961,-0.589844,0.856689
697,3143146130,9.189288,-2.841749,-1.044018,1.267477,-1.101115,1.349476,-0.456299,-0.586914,0.859619
698,3143162797,9.303087,-2.837153,-0.998377,0.957243,-1.202158,0.623138,-0.458008,-0.582520,0.856689
699,3143179464,9.384089,-2.956898,-1.015661,0.694059,-1.105739,0.767248,-0.458008,-0.587891,0.854004
700,3143196131,9.435461,-2.971335,-1.068821,2.772818,-2.026400,1.805311,-0.453613,-0.586182,0.857666
701,3143212798,9.376381,-2.985334,-1.046693,1.602286,-2.138084,2.339637,-0.459961,-0.587891,0.854980
702,3143229465,9.240211,-2.966107,-1.077313,1.105834,-1.763639,1.649707,-0.457275,-0.588867,0.853027
703,3143246132,9.235891,-2.858135,-1.056250,2.080628,-1.260158,0.693880,-0.458984,-0.585205,0.855713
704,3143262799,9.276438,-2.861337,-1.003159,1.196926,-1.764357,0.263740,-0.455322,-0.583496,0.855713
705,3143279466,9.383218,-2.966404,-0.940033,0.442901,-2.101663,1.025731,-0.462646,-0.587891,0.854004
706,3143296133,9.350288,-3.055769,-1.041295,0.419606,-3.273239,2.100235,-0.457275,-0.585205,0.856689
707,3143312800,9.291010,-3.037853,-1.122186,1.587840,-2.292337,2.079668,-0.456299,-0.588867,0.855957
708,3143329467,9.165568,-2.981638,-1.193615,1.810965,-1.029323,1.284637,-0.458984,-0.587891,0.858643
709,3143346134,9.233757,-2.885180,-1.150214,2.832425,-0.846026,0.795524,-0.455322,-0.586182,0.855957
710,3143362801,9.265652,-2.904775,-1.076073,1.332699,-1.905879,1.130705,-0.460693,-0.582520,0.855713
711,3143379468,9.318859,-2.985430,-0.981112,0.907516,-2.923677,1.125966,-0.455322,-0.586182,0.854004
712,3143396135,9.340585,-3.016509,-1.030185,1.348054,-1.566486,1.233219,-0.454590,-0.586182,0.858643
713,3143412802,9.263807,-3.032541,-1.051317,1.847002,-0.819107,1.963886,-0.456299,-0.584229,0.856689
714,3143429469,9.317743,-2.969600,-1.103918,1.988244,-1.450921,1.668738,-0.457275,-0.582520,0.857666
715,3143446136,9.357985,-2.899756,-1.089254,2.061662,-1.436232,1.350321,-0.458008,-0.585205,0.855713
716,3143462803,9.345707,-2.861694,-1.041348,0.553484,-1.938010,1.703699,-0.457275,-0.584229,0.858643
717,3143479470,9.298345,-2.860878,-1.044146,-1.700338,-1.862184,2.050188,-0.458984,-0.589844,0.858643
718,3143496137,9.190598,-2.874505,-1.132545,-1.207972,-2.110474,1.503677,-0.454590,-0.582520,0.858643
719,3143512804,9.295650,-2.935548,-1.112041,-0.942304,-1.893573,0.576151,-0.458984,-0.586914,0.859619
720,3143529471,9.332168,-3.159792,-1.115079,-1.471911,-0.853313,0.484253,-0.457275,-0.588867,0.854004
721,3143546138,9.302060,-3.258433,-1.155441,1.119256,-2.475660,1.087906,-0.453613,-0.587158,0.854004
722,3143562805,9.362162,-3.143747,-1.081132,4.746949,-2.399052,1.853495,-0.458984,-0.587891,0.857666
723,3143579472,9.186193,-3.044534,-1.081924,3.974842,-1.779840,1.900277,-0.459961,-0.587158,0.855713
724,3143596139,9.198078,-2.958467,-1.103878,2.056992,-1.015931,1.421464,-0.459961,-0.583496,0.856689
725,3143612806,9.259459,-2.917402,-1.097381,1.646096,0.204575,0.992870,-0.462646,-0.587891,0.854736
726,3143629473,9.288673,-2.983128,-1.210316,0.783870,-1.344961,1.371579,-0.457275,-0.585205,0.858643
727,3143646140,9.374265,-2.982872,-1.087392,-1.234750,-3.277786,2.034475,-0.460693,-0.587158,0.857666
728,3143662807,9.296124,-2.973917,-1.046505,0.154976,-3.357377,2.368336,-0.455322,-0.588867,0.855957
729,3143679474,9.238659,-2.919739,-1.096006,1.106859,-2.813721,1.733218,-0.458984,-0.588867,0.854004
730,3143696141,9.270044,-2.951470,-1.115618,1.477136,-1.473127,0.582574,-0.457275,-0.590576,0.857666
731,3143712808,9.335205,-3.031268,-1.103104,1.522336,-0.079361,0.323610,-0.460693,-0.586182,0.860352
732,3143729475,9.363622,-3.020615,-1.022759,3.564731,-1.275615,0.966719,-0.457275,-0.586914,0.859619
733,3143746142,9.370165,-3.059482,-1.072280,4.672928,-2.489439,2.187920,-0.460693,-0.584229,0.860352
734,3143762809,9.230918,-3.053966,-1.027391,3.197982,-2.517011,1.830482,-0.459961,-0.583252,0.862305
735,3143779476,9.181267,-2.974734,-1.052934,2.746738,-1.051286,0.849733,-0.461670,-0.584229,0.861328
736,3143796143,9.229625,-2.838511,-1.095968,1.752376,-1.018246,0.347071,-0.456299,-0.583496,0.856689
737,3143812810,9.328654,-2.845343,-1.055010,-0.243846,-0.645722,0.822033,-0.460693,-0.583496,0.857666
738,3143829477,9.304617,-2.908901,-1.100856,-0.738747,-2.626544,1.491690,-0.460693,-0.583252,0.862305
739,3143846144,9.389733,-2.971005,-1.120636,-0.652765,-3.532760,2.268165,-0.459961,-0.588867,0.858643
740,3143862811,9.248808,-3.050678,-1.119857,-1.549786,-1.882674,1.985209,-0.460693,-0.588867,0.855713
741,3143879478,9.201432,-3.060996,-1.165084,-1.871097,-1.056306,1.030149,-0.454590,-0.586182,0.853027
742,3143896145,9.275133,-3.043605,-1.224196,0.467054,-0.791176,0.471485,-0.463379,-0.587158,0.854736
743,3143912812,9.301234,-3.099658,-1.142835,0.568301,-1.232496,0.946626,-0.459961,-0.585205,0.855713
744,3143929479,9.315530,-3.108641,-1.094102,1.045069,-1.448488,1.378405,-0.457275,-0.586182,0.854004
745,3143946146,9.382748,-3.047315,-1.065300,4.208084,-2.196955,1.819097,-0.456299,-0.587891,0.859619
746,3143962813,9.287197,-3.002742,-1.061324,3.733787,-1.200096,1.682735,-0.457275,-0.583496,0.854980
747,3143979480,9.215394,-2.930529,-1.121884,3.084185,-0.156980,1.076393,-0.458008,-0.588867,0.858643
748,3143996147,9.212866,-2.895119,-1.130540,1.949261,-0.073252,0.277930,-0.457275,-0.591553,0.857666
749,3144012814,9.294677,-2.867288,-1.143551,0.550154,-1.787805,0.090022,-0.458008,-0.587891,0.860352
750,3144029481,9.378226,-2.939325,-0.993680,-1.330477,-3.102684,1.229448,-0.460693,-0.587158,0.854004
751,3144046148,9.330924,-3.140662,-1.004717,-1.040433,-2.162653,1.359689,-0.455322,-0.586182,0.856689
752,3144062815,9.206081,-3.188418,-1.081679,0.694853,-1.313714,0.553074,-0.462646,-0.586914,0.859375
753,3144079482,9.228979,-3.127671,-1.138286,2.428961,-0.415272,0.241547,-0.457275,-0.586182,0.857666
754,3144096149,9.219825,-3.078887,-1.153648,4.359185,-0.053031,0.355267,-0.456299,-0.587158,0.856689
755,3144112816,9.356108,-2.969094,-1.134685,5.085075,-0.738056,0.976939,-0.460693,-0.583496,0.855713
756,3144129483,9.337204,-2.968686,-0.988417,3.468782,-1.471361,1.816427,-0.453613,-0.587891,0.855957
757,3144146150,9.299689,-2.967405,-1.021789,-0.236649,-1.473243,1.927144,-0.458008,-0.585205,0.853027
758,3144162817,9.238645,-2.866451,-1.031740,-0.460363,-1.864348,1.722998,-0.458008,-0.589600,0.863281
759,3144179484,9.234857,-2.840740,-1.062113,-0.366198,-1.745301,0.749703,-0.460693,-0.583496,0.856689
760,3144196151,9.260972,-2.938935,-1.109555,0.364693,-1.619043,-0.118715,-0.460693,-0.584229,0.855713
761,3144212818,9.374314,-3.013620,-1.050029,0.806128,-1.655528,-0.014164,-0.456299,-0.585205,0.854004
762,3144229485,9.366343,-3.120357,-1.044339,1.563751,-2.715369,1.165461,-0.456299,-0.587891,0.854980
763,3144246152,9.401602,-3.155767,-1.049406,2.004008,-1.602740,1.649836,-0.458008,-0.593506,0.857666
764,3144262819,9.246719,-3.028430,-1.071694,1.882066,-0.251235,1.131627,-0.458008,-0.584229,0.854980
765,3144279486,9.226357,-2.862503,-1.048636,2.808567,-0.354608,0.574948,-0.460693,-0.584229,0.858643
766,3144296153,9.252071,-2.835017,-1.118137,2.361369,-0.879617,-0.050547,-0.458008,-0.581543,0.861328
767,3144312820,9.387832,-2.863477,-1.120549,1.723562,-1.132312,0.114982,-0.458008,-0.583496,0.859619
768,3144329487,9.357612,-2.925068,-1.012238,0.495843,-2.108489,0.930209,-0.456299,-0.590820,0.854980
769,3144346154,9.281091,-2.965936,-0.984998,-0.619802,-2.271411,1.100840,-0.457275,-0.589844,0.855957
770,3144362821,9.219055,-2.974493,-1.084434,-0.012012,-1.567779,0.501670,-0.457275,-0.583496,0.854980
771,3144379488,9.203794,-2.974708,-1.078328,1.634097,-0.402849,-0.061624,-0.459961,-0.589844,0.854980
772,3144396155,9.244594,-3.030500,-1.135163,1.804191,-1.428305,-0.213700,-0.455322,-0.590576,0.858643
773,3144412822,9.465240,-3.010023,-1.118890,3.487124,-1.443378,0.315939,-0.457275,-0.591553,0.856689
774,3144429489,9.296178,-2.980794,-0.981756,2.889824,-1.337150,1.620291,-0.459961,-0.587158,0.857666
775,3144446156,9.234153,-2.978351,-1.007787,1.902594,-1.362224,1.588480,-0.459961,-0.587158,0.856689
776,3144462823,9.263783,-2.858121,-1.053307,1.215227,-0.655147,0.692049,-0.449951,-0.586182,0.859619
777,3144479490,9.285050,-2.770656,-1.085998,-0.182759,-0.538405,0.448677,-0.455322,-0.587891,0.855957
778,3144496157,9.308983,-2.877978,-1.114080,-1.169437,-0.944955,0.502156,-0.457275,-0.588867,0.855957
779,3144512824,9.366189,-2.957144,-1.017621,-1.741369,-2.571579,0.881506,-0.456299,-0.590820,0.855957
780,3144529491,9.330874,-3.008884,-0.996411,-1.331412,-4.162794,1.671184,-0.456299,-0.589844,0.855957
781,3144546158,9.304118,-3.126894,-1.091059,-0.283712,-1.939752,1.230095,-0.454590,-0.593506,0.859619
782,3144562825,9.239957,-3.156281,-1.112481,0.711899,-0.444752,0.022879,-0.458008,-0.585205,0.855713
783,3144579492,9.233317,-3.035918,-1.076550,2.431983,-0.702876,-0.197909,-0.459961,-0.588867,0.854980
784,3144596159,9.296453,-2.970181,-1.104322,3.302418,-1.594826,0.347263,-0.455322,-0.587891,0.855957
785,3144612826,9.384290,-2.914500,-1.051040,4.286266,-1.482181,1.259127,-0.455322,-0.589844,0.856689
786,3144629493,9.271478,-2.908634,-1.064455,3.081714,-1.372828,2.109443,-0.452637,-0.590576,0.863281
787,3144646160,9.223904,-2.881871,-1.085836,1.666410,-2.167358,1.887242,-0.456299,-0.588867,0.856689
788,3144662827,9.246528,-2.869692,-1.033928,0.765007,-1.909401,1.597816,-0.457275,-0.587891,0.856689
789,3144679494,9.211092,-2.885726,-1.012366,-0.582894,-2.947663,1.567376,-0.457275,-0.588867,0.858643
790,3144696161,9.319454,-2.957848,-1.068678,-1.831949,-2.858403,1.108140,-0.452637,-0.586182,0.857666
791,3144712828,9.339024,-2.999882,-1.089842,-0.221460,-1.564065,1.494764,-0.455322,-0.590576,0.859619
792,3144729495,9.407290,-2.957802,-1.071645,0.505896,-3.113595,2.864505,-0.455322,-0.588867,0.856689
793,3144746162,9.318202,-2.973881,-1.081023,-0.732190,-1.892125,2.528236,-0.455322,-0.588867,0.858643
794,3144762829,9.261928,-2.906676,-1.154942,0.110064,-1.806771,1.597150,-0.457275,-0.593506,0.858643
795,3144779496,9.268934,-2.834899,-1.073892,1.203957,-0.722419,0.823442,-0.454590,-0.592529,0.859619
796,3144796163,9.322839,-2.850643,-1.069543,1.075689,-1.055423,0.467310,-0.458008,-0.590576,0.857666
797,3144812830,9.394788,-2.874324,-1.077393,1.895295,-2.996852,1.313836,-0.457275,-0.580811,0.856689
798,3144829497,9.358476,-3.022766,-0.996391,0.684006,-4.633479,2.069756,-0.455322,-0.591553,0.857666
799,3144846164,9.279649,-3.107325,-1.020081,-1.413104,-2.612572,1.013206,-0.455322,-0.590576,0.857666
800,3144862831,9.216277,-3.040097,-1.147788,0.706469,-0.612809,-0.027098,-0.455322,-0.587891,0.853027
801,3144879498,9.390342,-2.884293,-1.164070,3.106827,0.093160,0.524209,-0.453613,-0.590820,0.854980
802,3144896165,9.374902,-2.893506,-1.220970,6.363443,0.559708,1.670313,-0.455322,-0.587158,0.855957
803,3144912832,9.319486,-2.952452,-1.025736,4.167244,-2.383800,2.360909,-0.460693,-0.584229,0.858643
804,3144929499,9.306918,-2.943044,-1.002603,-0.657094,-2.538833,1.408679,-0.458984,-0.590576,0.856689
805,3144946166,9.359890,-2.880646,-1.117771,-0.006775,-1.575360,1.239418,-0.457275,-0.589844,0.855957
806,3144962833,9.462683,-2.780850,-1.186727,-1.053284,-1.783630,1.858938,-0.457275,-0.588867,0.856689
807,3144979500,9.352299,-2.872186,-0.940233,-5.550465,-1.553705,0.882876,-0.456299,-0.588867,0.852051
808,3144996167,9.153040,-2.940782,-0.918672,-4.542284,-1.676953,-1.142736,-0.453613,-0.592529,0.854980
809,3145012834,9.265336,-2.872890,-1.071918,-0.638896,-0.923940,-1.194653,-0.452881,-0.596191,0.850342
810,3145029501,9.338909,-2.874500,-1.337844,5.157598,-1.570661,0.310701,-0.453613,-0.595215,0.853271
811,3145046168,9.390254,-2.892685,-1.143949,6.564760,-1.679335,0.200925,-0.459961,-0.591553,0.856689
812,3145062835,9.334408,-2.926897,-0.934600,-0.485770,-2.224399,-1.369204,-0.454590,-0.593506,0.854980
813,3145079502,9.463578,-2.904122,-0.985800,-6.712295,-1.969207,-1.836174,-0.453613,-0.595215,0.856934
814,3145096169,9.392477,-2.870208,-1.168327,-6.847378,0.873848,-0.626333,-0.459961,-0.595215,0.850342
815,3145112836,9.144739,-2.826183,-1.076026,-3.192379,0.301237,-0.648744,-0.453613,-0.602539,0.854980
816,3145129503,9.104671,-2.778126,-1.077308,-2.367664,-2.124445,-1.757275,-0.451904,-0.600830,0.852295
817,3145146170,9.219321,-2.803567,-1.139689,-0.176561,-1.397595,-2.053025,-0.452637,-0.597168,0.853271
818,3145162837,9.303514,-2.921048,-1.222717,4.543840,-1.045587,-0.282316,-0.454590,-0.601562,0.851318
819,3145179504,9.414147,-2.933283,-1.181960,3.036722,-2.385756,2.153687,-0.453613,-0.597168,0.850342
820,3145196171,9.266258,-3.025356,-1.026856,-1.843922,-1.697546,1.632829,-0.455566,-0.597168,0.854980
821,3145212838,9.185755,-2.989075,-1.042075,-3.182608,-1.264127,0.407018,-0.454590,-0.600830,0.852295
822,3145229505,9.347705,-2.909645,-1.157683,-0.470403,0.391074,0.515872,-0.455566,-0.599854,0.850342
823,3145246172,9.390818,-2.886491,-1.266333,1.386742,1.026922,1.956023,-0.454590,-0.600830,0.853271
824,3145262839,9.227454,-2.953125,-1.041897,-0.365160,-1.618812,1.560819,-0.456299,-0.601562,0.854004
825,3145279506,9.186520,-3.039594,-1.085434,-4.621902,-2.540742,0.964914,-0.457275,-0.603516,0.849365
826,3145296173,9.295999,-2.987785,-1.255180,-2.536964,-2.182957,1.067441,-0.451904,-0.607178,0.847656
827,3145312840,9.252309,-2.986425,-1.279480,1.378200,-2.192601,1.721846,-0.458252,-0.603516,0.848633
828,3145329507,9.265417,-3.027375,-1.156769,1.228455,-2.860260,1.569796,-0.453613,-0.607178,0.851318
829,3145346174,9.187303,-3.085216,-1.137210,0.121564,-4.086237,0.404777,-0.452881,-0.606201,0.854248
830,3145362841,9.247541,-3.068957,-1.274650,3.145336,-3.975924,-0.002356,-0.450928,-0.607178,0.851562
831,3145379508,9.446214,-3.045614,-1.247469,7.511918,-2.850745,0.968756,-0.454590,-0.598145,0.851318
832,3145396175,9.374611,-3.056144,-1.167908,7.355206,-1.978108,2.139730,-0.455566,-0.602539,0.851318
833,3145412842,9.361937,-2.982015,-1.077930,5.472749,-2.719723,2.204210,-0.453613,-0.602539,0.854248
834,3145429509,9.266260,-2.795347,-1.041228,2.593216,-0.312373,1.540649,-0.453613,-0.599854,0.854980
835,3145446176,9.174389,-2.693504,-1.173625,0.857776,0.610139,0.817231,-0.456299,-0.603516,0.849609
836,3145462843,9.285583,-2.706144,-1.149721,1.714444,-0.705220,0.424025,-0.452637,-0.601562,0.858887
837,3145479510,9.477051,-2.767567,-1.267681,2.610004,-2.623060,1.897408,-0.453613,-0.597900,0.853271
838,3145496177,9.520069,-2.859658,-1.039456,0.058275,-4.029096,3.801751,-0.452637,-0.594482,0.854980
839,3145512844,9.324309,-3.032840,-0.895323,-3.222769,-3.051177,2.652343,-0.454590,-0.601562,0.857910
840,3145529511,9.299193,-2.992851,-0.991965,-3.512680,-1.364555,1.178383,-0.455566,-0.601562,0.856934
841,3145546178,9.235575,-2.846193,-1.062703,-1.885953,1.524436,0.106158,-0.454590,-0.606201,0.851318
842,3145562845,9.285896,-2.914509,-1.163859,-1.624089,1.652474,-0.832733,-0.456299,-0.603516,0.851318
843,3145579512,9.427927,-2.933996,-1.282094,1.665703,-1.609003,0.669702,-0.450928,-0.603516,0.851318
844,3145596179,9.487982,-3.017666,-1.092553,0.662735,-4.507131,2.088773,-0.454590,-0.599854,0.851318
845,3145612846,9.248157,-3.193687,-1.088259,-1.244303,-2.457987,1.626528,-0.454590,-0.601562,0.850342
846,3145629513,9.144546,-3.016011,-1.205426,2.118535,-0.564991,0.539192,-0.458252,-0.605225,0.849609
847,3145646180,9.165790,-2.780010,-1.158572,4.065600,1.353458,0.089215,-0.453613,-0.601562,0.850342
848,3145662847,9.212602,-2.794406,-1.182615,3.950816,1.407527,-0.273454,-0.455566,-0.599854,0.851318
849,3145679514,9.522134,-2.759041,-1.206379,6.048216,-0.481967,1.948698,-0.458252,-0.601562,0.851318
850,3145696181,9.458309,-2.879019,-0.934013,3.226116,-3.243231,4.108793,-0.458252,-0.597900,0.852295
851,3145712848,9.247004,-3.109634,-0.948510,-2.036133,-3.288722,3.874580,-0.449219,-0.602539,0.850586
852,3145729515,9.178905,-2.966111,-1.091158,-0.662434,-1.634269,1.930192,-0.458252,-0.598145,0.850342
853,3145746182,9.227109,-2.731134,-1.124269,1.215163,-0.142163,1.009595,-0.453613,-0.601562,0.852295
854,3145762849,9.355296,-2.738013,-1.258954,1.757038,-0.288028,1.078403,-0.456299,-0.603516,0.855957
855,3145779516,9.490211,-2.786606,-1.188106,2.694488,-1.178607,2.189252,-0.456299,-0.601562,0.849365
856,3145796183,9.330697,-2.923585,-1.076514,0.476492,-2.717034,3.004901,-0.453613,-0.598877,0.853271
857,3145812850,9.224703,-2.961417,-1.129765,-0.119803,-2.957947,2.433354,-0.458984,-0.601807,0.847656
858,3145829517,9.217712,-2.864305,-1.193329,2.576939,-1.174086,1.071693,-0.455566,-0.598877,0.850342
859,3145846184,9.282469,-2.793455,-1.051226,2.345976,-0.116474,0.556673,-0.454590,-0.603516,0.851318
860,3145862851,9.403120,-2.818052,-1.077888,2.448414,-1.779878,0.706392,-0.456299,-0.598877,0.853271
861,3145879518,9.565695,-2.825667,-1.098976,2.498692,-2.499108,1.985439,-0.459961,-0.599854,0.853027
862,3145896185,9.384265,-2.882812,-1.105287,-0.278423,-1.771208,2.511895,-0.453613,-0.598145,0.852295
863,3145912852,9.260897,-2.841337,-1.042586,-0.533858,-1.010049,1.426172,-0.455566,-0.602539,0.849609
864,3145929519,9.203500,-2.774474,-1.093063,0.879188,0.016898,0.143437,-0.457275,-0.599854,0.850342
865,3145946186,9.271352,-2.838839,-1.149405,0.937175,0.092519,-0.824716,-0.459961,-0.603516,0.848633
866,3145962853,9.390676,-2.931955,-1.171369,1.319413,-0.897507,-0.163742,-0.456299,-0.602539,0.855957
867,3145979520,9.390059,-2.975636,-1.075655,1.999833,-2.709478,1.231593,-0.454590,-0.599854,0.849365
868,3145996187,9.302759,-3.051172,-1.075912,0.297639,-3.010888,1.357108,-0.455566,-0.601562,0.851318
869,3146012854,9.224569,-3.094752,-1.147256,0.439482,-1.340005,0.548759,-0.456299,-0.599854,0.854980
870,3146029521,9.280247,-2.989662,-1.083273,3.165070,0.645306,0.226666,-0.456299,-0.602539,0.850342
871,3146046188,9.351102,-2.890708,-1.100806,3.408148,0.721644,0.260718,-0.457275,-0.604492,0.849609
872,3146062855,9.420986,-2.814049,-1.070057,3.167593,0.780681,0.990706,-0.457275,-0.597900,0.851318
873,3146079522,9.237225,-2.872548,-1.018909,1.361475,-0.954406,1.916477,-0.459961,-0.598877,0.850342
874,3146096189,9.217237,-2.941998,-1.110437,-0.526853,-2.688386,1.208004,-0.456299,-0.604492,0.850342
875,3146112856,9.258392,-2.904930,-1.129056,0.099896,-2.280388,0.547311,-0.456299,-0.600830,0.849365
876,3146129523,9.337013,-2.911133,-1.094971,0.679627,-2.134819,0.292503,-0.460938,-0.597168,0.852051
877,3146146190,9.415152,-3.039961,-1.030685,-0.325025,-1.173087,0.446321,-0.461670,-0.601562,0.847656
878,3146162857,9.376086,-3.080797,-1.061866,1.449557,-0.236649,0.901637,-0.456299,-0.607910,0.854248
879,3146179524,9.245245,-3.007978,-1.056311,4.044598,-0.965330,1.584178,-0.459961,-0.600830,0.850342
880,3146196191,9.187480,-2.936543,-1.133129,4.527641,-2.062719,1.426813,-0.456299,-0.599854,0.853271
881,3146212858,9.275977,-2.843012,-1.152508,3.969270,-1.223890,0.923254,-0.457275,-0.603516,0.853271
882,3146229525,9.338734,-2.849211,-1.063105,3.605534,-0.897454,1.072820,-0.458252,-0.599854,0.854980
883,3146246192,9.395302,-2.865845,-0.969966,2.541991,-2.418134,1.655112,-0.458252,-0.597168,0.848389
884,3146262859,9.400414,-2.830889,-0.974265,0.267621,-2.334930,2.416898,-0.455566,-0.597900,0.853271
885,3146279526,9.305283,-2.794914,-1.036119,-0.092961,-1.582826,2.021489,-0.455566,-0.601562,0.850342
886,3146296193,9.236527,-2.772490,-1.047763,0.096874,0.148650,1.059514,-0.458984,-0.597900,0.854980
887,3146312860,9.253894,-2.777497,-1.137667,0.199452,-0.533141,0.475276,-0.458984,-0.595215,0.850342
888,3146329527,9.395966,-2.822891,-1.077221,1.683401,-1.443199,0.786969,-0.458984,-0.600830,0.854004
889,3146346194,9.438132,-2.964874,-0.926322,1.073025,-2.169613,1.587866,-0.456299,-0.602539,0.852295
890,3146362861,9.326147,-3.056903,-0.961372,-1.199161,-2.113996,1.879300,-0.457275,-0.598877,0.852295
891,3146379528,9.285088,-3.012842,-1.097646,-1.043922,-1.294402,1.185157,-0.458252,-0.605225,0.846680
892,3146396195,9.286686,-2.871744,-1.137987,0.772575,0.313749,0.520175,-0.458252,-0.600830,0.850342
893,3146412862,9.273260,-2.829458,-1.103181,2.300949,-0.260532,0.291773,-0.456299,-0.598877,0.847656
894,3146429529,9.438544,-2.757987,-1.087394,3.391819,-2.318679,1.401559,-0.458984,-0.600830,0.848389
895,3146446196,9.357437,-2.832360,-1.026323,1.711882,-2.277968,2.079668,-0.456299,-0.599854,0.852295
896,3146462863,9.223788,-2.911082,-1.022487,-0.903027,-1.444800,1.313029,-0.454590,-0.601807,0.847656
897,3146479530,9.232945,-2.899177,-1.096090,-1.951111,-0.495106,0.450956,-0.460938,-0.603516,0.851318
898,3146496197,9.282819,-2.883965,-1.064780,-0.324987,0.247182,0.140659,-0.461670,-0.601807,0.846680
899,3146512864,9.365010,-2.958353,-1.132245,0.434628,0.157307,-0.016546,-0.458984,-0.604492,0.849365
900,3146529531,9.378948,-2.955039,-1.071337,2.754703,-0.544885,0.785650,-0.458984,-0.605225,0.848633
901,3146546198,9.353113,-2.910897,-0.984281,3.110938,-2.055278,1.795610,-0.459961,-0.596191,0.851318
902,3146562865,9.370937,-2.877618,-1.037334,1.315910,-1.401245,1.767885,-0.458252,-0.599854,0.852295
903,3146579532,9.318449,-2.819268,-1.082008,0.875320,0.029820,0.808971,-0.457275,-0.601562,0.851318
904,3146596199,9.260093,-2.765946,-1.024312,0.726664,-0.475474,0.547311,-0.461670,-0.600830,0.847656
905,3146612866,9.313045,-2.840713,-1.066684,-0.082434,-1.617544,0.402869,-0.458984,-0.601562,0.849365
906,3146629533,9.367537,-2.857245,-1.079744,-0.404284,-2.472611,1.133253,-0.462646,-0.600830,0.848389
907,3146646200,9.363093,-2.954827,-0.966693,0.414702,-2.981510,1.480600,-0.456299,-0.603516,0.843018
908,3146662867,9.303630,-3.068059,-1.027767,-0.628472,-1.739397,1.280603,-0.456299,-0.605469,0.845703
909,3146679534,9.263527,-2.999323,-1.140190,1.379391,-1.012547,0.869775,-0.458252,-0.607178,0.846680
910,3146696201,9.294662,-2.911932,-1.109099,3.080164,-0.890899,0.881775,-0.458252,-0.601807,0.847656
911,3146712868,9.359781,-2.872109,-1.105437,2.739387,-1.407469,1.281896,-0.461670,-0.599854,0.847656
912,3146729535,9.333886,-2.897651,-1.054252,2.362381,-1.877129,1.954998,-0.458984,-0.602539,0.843994
913,3146746202,9.327258,-2.883235,-1.006156,1.116730,-2.418987,2.169976,-0.458984,-0.602539,0.848633
914,3146762869,9.322868,-2.859023,-1.106477,0.559670,-1.831539,1.597009,-0.460938,-0.603516,0.848633
915,3146779536,9.302476,-2.838572,-1.108774,1.424303,0.232467,1.487298,-0.456299,-0.596191,0.848389
916,3146796203,9.301100,-2.816637,-1.084999,0.835249,-0.847319,1.379071,-0.455566,-0.602539,0.849609
917,3146812870,9.334375,-2.783294,-1.095943,0.934166,-2.759999,1.189281,-0.458984,-0.604492,0.847656
918,3146829537,9.399235,-2.815074,-1.062136,0.537873,-3.159019,1.289145,-0.460938,-0.600830,0.844727
919,3146846204,9.317150,-2.910115,-1.039028,0.451827,-2.130298,1.361206,-0.458984,-0.598877,0.848389
920,3146862871,9.326921,-2.937610,-1.057642,1.611506,-1.096633,1.046260,-0.459229,-0.606201,0.844727
921,3146879538,9.322206,-2.865540,-1.048888,3.042757,0.175005,0.530279,-0.458252,-0.607178,0.848633
922,3146896205,9.395800,-2.808717,-1.005813,3.324292,-0.390888,0.959701,-0.458984,-0.602539,0.849365
923,3146912872,9.390806,-2.789126,-0.964859,1.614195,-2.377908,1.814064,-0.458984,-0.600830,0.846680
924,3146929539,9.363279,-2.851424,-0.936288,-0.421124,-1.893573,1.706504,-0.460938,-0.601562,0.847656
925,3146946206,9.272091,-2.866943,-1.072314,-0.849189,-0.431228,1.226317,-0.461914,-0.600830,0.843750
926,3146962873,9.274644,-2.811938,-1.113407,-0.510320,0.301404,0.831920,-0.463623,-0.600830,0.847412
927,3146979540,9.283842,-2.904899,-1.121415,-1.065258,-0.621070,1.006445,-0.458252,-0.604492,0.846680
928,3146996207,9.319907,-2.935993,-1.074475,-0.705835,-2.432464,1.381811,-0.460938,-0.607178,0.843994
929,3147012874,9.292439,-2.984398,-1.066351,0.067009,-2.268043,1.792422,-0.458252,-0.606201,0.849609
930,3147029541,9.313373,-2.993580,-1.087687,0.160944,-1.023484,1.656892,-0.459961,-0.599854,0.842041
931,3147046208,9.292809,-2.939739,-1.123010,1.224025,-0.465280,1.140181,-0.460938,-0.602539,0.844727
932,3147062875,9.329939,-2.881321,-1.063960,1.737418,-1.275359,1.433024,-0.461670,-0.599854,0.846680
933,3147079542,9.420198,-2.906060,-1.048575,1.259101,-2.022917,1.799785,-0.458252,-0.605225,0.852295
934,3147096209,9.384363,-2.869880,-1.035652,1.262315,-0.908880,1.815140,-0.464600,-0.607178,0.847656
935,3147112876,9.284172,-2.828197,-0.995586,0.534364,-0.412070,1.871014,-0.463623,-0.602539,0.843018
936,3147129543,9.257530,-2.810601,-1.039537,-0.274146,-0.563800,1.277760,-0.460938,-0.601807,0.843018
937,3147146210,9.265464,-2.841898,-1.123453,0.398028,-0.549175,0.571170,-0.459961,-0.608887,0.845703
938,3147162877,9.337293,-2.889954,-1.091895,0.919656,-0.572815,0.330846,-0.463623,-0.608887,0.845703
939,3147179544,9.400843,-2.963067,-1.038300,1.305025,-0.422545,0.633805,-0.462646,-0.599854,0.841064
940,3147196211,9.317972,-2.953392,-1.023075,1.895602,-0.361229,0.890778,-0.459961,-0.608887,0.846680
941,3147212878,9.312362,-2.931815,-1.052188,3.073402,-0.333900,1.137249,-0.459961,-0.607178,0.846680
942,3147229545,9.295783,-2.859634,-1.031019,3.948665,0.403419,1.073716,-0.461914,-0.610840,0.846680
943,3147246212,9.291555,-2.786138,-1.022980,3.470770,0.168884,1.040509,-0.462646,-0.604492,0.847656
944,3147262879,9.344838,-2.783968,-0.993193,2.273125,0.038295,0.930959,-0.465332,-0.599854,0.840088
945,3147279546,9.340122,-2.852969,-0.987818,0.891930,-0.083818,1.042187,-0.466309,-0.598877,0.843750
946,3147296213,9.354759,-2.854304,-0.978174,0.153094,-1.098183,1.120523,-0.462646,-0.606201,0.845703
947,3147312880,9.359339,-2.865367,-1.008964,0.131156,-1.328428,1.051139,-0.465332,-0.606201,0.841064
948,3147329547,9.373898,-2.899714,-1.009253,0.930042,-0.744228,0.961712,-0.464600,-0.601807,0.844727
949,3147346214,9.351326,-2.902264,-0.987559,1.271152,-0.370232,0.886872,-0.466309,-0.601807,0.842041
950,3147362881,9.315092,-2.866338,-0.954591,1.810018,-0.423660,1.007776,-0.466309,-0.601807,0.843750
951,3147379548,9.331440,-2.821506,-1.002532,2.278692,-0.970119,0.878893,-0.464600,-0.601807,0.842041
952,3147396215,9.332827,-2.802223,-0.973859,2.325729,-0.853787,0.879265,-0.462646,-0.608887,0.843018
953,3147412882,9.321135,-2.875969,-0.925111,1.446612,-0.924759,1.178011,-0.467285,-0.608887,0.843018
954,3147429549,9.323205,-2.925329,-0.904039,1.110086,-1.165211,1.275621,-0.463623,-0.603516,0.843018
955,3147446216,9.346923,-2.927442,-0.930406,0.732414,-1.315097,1.325361,-0.461914,-0.601807,0.841064
956,3147462883,9.346315,-2.889395,-0.948088,0.504602,-1.354579,1.433037,-0.467285,-0.603516,0.843750
957,3147479550,9.331017,-2.893087,-0.960708,0.334585,-1.446375,1.634571,-0.465332,-0.602539,0.846680
958,3147496217,9.319870,-2.870391,-0.972842,1.075497,-1.443186,1.667163,-0.459961,-0.603516,0.841064
959,3147512884,9.324327,-2.835842,-0.976867,1.637093,-1.472858,1.709961,-0.465332,-0.604492,0.844727
960,3147529551,9.317882,-2.868498,-0.983161,1.013911,-1.503632,1.651078,-0.464600,-0.603516,0.843018
961,3147546218,9.350016,-2.899928,-0.975806,0.968512,-1.422542,1.564340,-0.463623,-0.605469,0.840088
962,3147562885,9.303981,-2.876381,-0.963150,1.064854,-1.610693,1.653421,-0.464600,-0.602539,0.843018
963,3147579552,9.314115,-2.859694,-0.949052,1.387075,-2.040115,1.660618,-0.467285,-0.605469,0.838135
964,3147596219,9.377042,-2.860600,-0.962864,1.495109,-1.822651,1.404530,-0.463623,-0.608887,0.845703
965,3147612886,9.375410,-2.882091,-0.966287,1.079005,-1.663507,1.157816,-0.465332,-0.605225,0.843750
966,3147629553,9.355320,-2.883516,-0.965038,1.025424,-1.601793,1.253287,-0.468994,-0.602539,0.843750
967,3147646220,9.335923,-2.856961,-0.927005,1.489385,-1.431622,1.385321,-0.463623,-0.608154,0.843994
968,3147662887,9.296550,-2.824184,-0.951610,2.039366,-1.547314,1.211321,-0.464600,-0.602539,0.842041
969,3147679554,9.313701,-2.775730,-0.956637,1.733000,-1.674200,1.149261,-0.464600,-0.606201,0.843018
970,3147696221,9.355751,-2.834237,-0.932350,0.739816,-1.751179,1.060667,-0.463623,-0.603516,0.843018
971,3147712888,9.349644,-2.884565,-0.925797,0.136106,-2.316758,1.202760,-0.470703,-0.603516,0.844727
972,3147729555,9.347574,-2.905444,-0.937576,-0.160681,-2.268440,1.321084,-0.465332,-0.601807,0.841064
973,3147746222,9.334158,-2.914068,-0.930878,0.089100,-1.890499,1.390315,-0.460938,-0.606201,0.840088
974,3147762889,9.315688,-2.881618,-0.929824,0.619693,-1.530871,1.596830,-0.464600,-0.601807,0.845703
975,3147779556,9.297327,-2.859184,-0.956141,0.526540,-1.982385,1.785353,-0.469971,-0.606201,0.842041
976,3147796223,9.341591,-2.833977,-0.992917,0.655678,-2.098194,1.939719,-0.458252,-0.603516,0.842041
977,3147812890,9.370991,-2.826246,-1.016241,0.178719,-1.918827,2.046717,-0.465332,-0.605469,0.842041
978,3147829557,9.306736,-2.822201,-1.019728,-1.206627,-2.255505,1.987833,-0.468994,-0.607178,0.843750
979,3147846224,9.287287,-2.828146,-1.013969,-1.877206,-2.557147,2.011807,-0.471680,-0.603516,0.844727
980,3147862891,9.297249,-2.835900,-0.995716,-1.536480,-2.379779,1.556055,-0.465332,-0.608887,0.843018
981,3147879558,9.295803,-2.855768,-1.005521,-0.539903,-2.066574,1.309494,-0.465332,-0.608887,0.844727
982,3147896225,9.334311,-2.905977,-0.959174,0.185647,-1.886030,1.404876,-0.467285,-0.603516,0.840088
983,3147912892,9.352763,-2.936712,-0.949005,-0.014779,-2.265110,1.318100,-0.462646,-0.608154,0.841064
984,3147929559,9.340526,-2.968318,-0.958145,-0.669631,-2.418492,1.325617,-0.464600,-0.610840,0.838379
985,3147946226,9.322308,-3.003553,-0.988513,-0.748941,-2.195072,1.257513,-0.464600,-0.606201,0.843750
986,3147962893,9.300553,-3.013625,-1.029780,0.067291,-2.228676,1.302220,-0.468018,-0.608154,0.841064
987,3147979560,9.280971,-3.009846,-1.065265,1.337207,-2.169806,1.623531,-0.464600,-0.606201,0.841064
988,3147996227,9.315318,-2.999837,-1.145121,2.375815,-2.272346,1.830969,-0.462646,-0.608887,0.842041
989,3148012894,9.338429,-2.962695,-1.110132,3.008538,-2.211618,2.148502,-0.466309,-0.609131,0.838379
990,3148029561,9.316578,-2.903177,-1.118072,2.122416,-2.361773,2.366070,-0.466309,-0.609863,0.844727
991,3148046228,9.296221,-2.899743,-1.077792,1.670902,-2.953311,2.594202,-0.465332,-0.606201,0.844727
992,3148062895,9.321978,-2.872057,-1.054188,1.552572,-3.266080,2.502649,-0.463623,-0.609863,0.841064
993,3148079562,9.382859,-2.873577,-1.036047,2.126808,-3.070630,2.007952,-0.462646,-0.605225,0.844727
994,3148096229,9.402389,-2.847955,-1.005370,3.296246,-2.561898,2.012973,-0.463623,-0.605469,0.843018
995,3148112896,9.365072,-2.836240,-0.947461,3.929750,-2.113586,2.120700,-0.464600,-0.605225,0.844727
996,3148129563,9.370126,-2.801239,-0.969445,3.676236,-1.788970,1.937659,-0.465332,-0.604492,0.844727
997,3148146230,9.414593,-2.757948,-1.014061,3.264345,-1.700363,1.479742,-0.463623,-0.603516,0.846680
998,3148162897,9.367929,-2.717332,-1.021469,2.261633,-1.416075,1.467012,-0.467285,-0.603516,0.843750
999,3148179564,9.274343,-2.782946,-1.025724,0.494933,-1.736874,1.472058,-0.461914,-0.601807,0.844727
1000,3148196231,9.280637,-2.834228,-1.098567,-0.455048,-2.379778,0.895708,-0.464600,-0.605225,0.849365
1001,3148212898,9.286056,-2.861307,-1.106667,-0.267934,-2.503219,0.579647,-0.467285,-0.603516,0.843750
1002,3148229565,9.312374,-2.938156,-1.049404,-0.844989,-2.650389,0.691460,-0.458984,-0.603516,0.845703
1003,3148246232,9.363945,-3.027818,-1.028087,-1.025571,-2.685479,1.050025,-0.463623,-0.605469,0.841064
1004,3148262899,9.280399,-3.120666,-1.090155,-0.330263,-2.396747,1.225177,-0.466309,-0.602539,0.844727
1005,3148279566,9.258728,-3.116326,-1.072471,1.256335,-2.072003,1.289734,-0.459961,-0.603516,0.844727
1006,3148296233,9.237627,-3.088477,-1.066290,2.172745,-1.960024,1.215752,-0.465332,-0.604492,0.845703
1007,3148312900,9.271579,-3.059700,-1.086065,3.061463,-2.107991,1.309646,-0.462646,-0.608154,0.845703
1008,3148329567,9.295570,-3.031987,-1.075125,3.355872,-2.117876,1.327039,-0.464600,-0.606201,0.847656
1009,3148346234,9.320380,-2.999953,-1.063398,2.962205,-2.142835,1.695990,-0.464600,-0.604492,0.845703
1010,3148362901,9.280368,-2.954815,-1.074645,2.396446,-2.231456,2.001895,-0.461914,-0.601807,0.845703
1011,3148379568,9.254661,-2.857844,-1.083179,2.377659,-2.375322,1.916131,-0.462646,-0.605225,0.843750
1012,3148396235,9.279007,-2.840873,-1.115277,2.308838,-2.333957,1.687025,-0.458984,-0.602539,0.846680
1013,3148412902,9.285433,-2.892513,-1.109215,1.804318,-2.317513,1.541391,-0.461914,-0.601807,0.845703
1014,3148429569,9.341317,-2.973686,-1.093417,1.281871,-2.489798,1.650975,-0.464600,-0.603516,0.849365
1015,3148446236,9.334252,-3.025014,-1.090488,1.356621,-2.566456,1.900238,-0.459961,-0.603516,0.848633
1016,3148462903,9.327276,-3.034433,-1.077386,2.196359,-2.634445,2.223854,-0.459961,-0.602539,0.843994
1017,3148479570,9.323865,-2.960044,-1.054682,3.318362,-2.400371,2.474462,-0.463623,-0.598877,0.847412
1018,3148496237,9.323117,-2.907699,-1.063257,3.988442,-2.124023,2.619187,-0.463623,-0.598877,0.853027
1019,3148512904,9.311316,-2.861313,-1.063068,3.434695,-2.158331,2.755894,-0.460938,-0.599854,0.848389
1020,3148529571,9.311780,-2.838584,-1.060400,1.629781,-2.565355,2.934133,-0.463623,-0.600830,0.845703
1021,3148546238,9.308278,-2.817873,-1.056162,0.689513,-2.949981,3.013225,-0.461670,-0.601562,0.848389
1022,3148562905,9.308913,-2.856947,-1.115557,-0.233306,-2.993625,3.046662,-0.465332,-0.599854,0.845703
1023,3148579572,9.327613,-2.913918,-1.136506,-1.559378,-2.745079,2.864915,-0.463623,-0.596191,0.848389
1024,3148596239,9.300641,-3.001366,-1.126438,-1.043769,-2.886014,3.015287,-0.462646,-0.597900,0.849365
1025,3148612906,9.299516,-3.034543,-1.102690,0.326735,-3.552328,3.053309,-0.458984,-0.597168,0.852295
1026,3148629573,9.331539,-3.071675,-1.107784,1.337527,-4.018198,3.197598,-0.465332,-0.601562,0.851318
1027,3148646240,9.261221,-3.079912,-1.085747,1.754630,-4.398072,3.554806,-0.463623,-0.597168,0.853027
1028,3148662907,9.259323,-3.106411,-1.102204,4.657267,-3.791333,3.468953,-0.461670,-0.593506,0.853027
1029,3148679574,9.452061,-3.002566,-1.074916,5.849922,-5.445415,4.294399,-0.462646,-0.598877,0.851318
1030,3148696241,10.497135,-2.973290,-0.974782,-0.705720,-7.976001,8.874400,-0.464355,-0.594238,0.855713
1031,3148712908,9.850538,-3.522660,-1.607224,-3.545401,-3.013412,12.226873,-0.458984,-0.596191,0.854980
1032,3148729575,9.000139,-3.729065,-1.293426,-6.288280,0.957960,12.712712,-0.461670,-0.592529,0.851074
1033,3148746242,8.744594,-3.418911,-1.128479,-6.819680,-2.230535,11.125671,-0.465332,-0.596191,0.848389
1034,3148762909,8.816490,-3.034769,-1.177095,1.819892,-4.302589,9.432603,-0.465332,-0.598877,0.848389
1035,3148779576,9.139340,-2.796377,-1.136437,11.786825,-3.858056,8.344643,-0.468018,-0.593506,0.850098
1036,3148796243,9.060822,-2.832022,-1.125012,13.834793,-1.374891,6.553238,-0.468018,-0.583496,0.852783
1037,3148812910,8.991721,-2.944929,-1.231450,11.414836,-3.479321,3.861776,-0.468018,-0.585205,0.856689
1038,3148829577,8.996214,-2.865751,-1.118198,10.398587,-3.245194,0.693022,-0.472412,-0.577881,0.861084
1039,3148846244,9.064116,-2.699034,-0.921585,9.008863,-3.017713,-2.563972,-0.469727,-0.579590,0.861084
1040,3148862911,9.029070,-2.667331,-0.775889,3.835316,-2.146806,-5.881944,-0.467041,-0.579590,0.862061
1041,3148879578,9.183868,-2.835700,-0.745074,1.497889,-1.103600,-7.905194,-0.464355,-0.583252,0.860352
1042,3148896245,9.475583,-2.916602,-0.936089,4.611113,0.399885,-6.817859,-0.463379,-0.584229,0.860352
1043,3148912912,9.635001,-2.790037,-0.964563,6.839226,1.161491,-4.283545,-0.465332,-0.580566,0.861328
1044,3148929579,9.505433,-2.820155,-0.847860,5.865380,-0.471824,-2.598294,-0.459961,-0.580566,0.864014
1045,3148946246,9.406242,-2.861073,-1.028116,-4.760031,-2.927801,-2.909501,-0.461670,-0.584229,0.862305
1046,3148962913,9.239911,-2.783811,-1.433805,-17.775593,-3.998147,-5.301784,-0.465332,-0.586182,0.857666
1047,3148979580,9.113676,-2.768517,-1.401971,-19.303089,-3.591367,-6.419013,-0.461670,-0.590576,0.857666
1048,3148996247,9.036292,-2.923283,-1.280976,-17.877495,-2.871469,-6.037804,-0.458252,-0.597900,0.853027
1049,3149012914,9.276756,-2.961568,-1.404389,-12.269119,-4.436123,-3.465145,-0.458984,-0.598877,0.856934
1050,3149029581,9.411333,-3.034923,-1.300993,-4.958875,-5.700875,-0.020593,-0.458984,-0.603516,0.850342
1051,3149046248,9.294991,-3.251431,-1.172997,-4.754409,-3.971569,0.575985,-0.455566,-0.607178,0.851318
1052,3149062915,9.201635,-3.300448,-1.183290,-5.162509,-1.186649,-0.253681,-0.457275,-0.613525,0.848633
1053,3149079582,9.201077,-3.192924,-1.131015,0.627582,0.037414,0.254571,-0.461914,-0.607178,0.851318
1054,3149096249,9.329757,-3.207034,-1.353564,0.929735,0.912997,0.969396,-0.451904,-0.606201,0.849609
1055,3149112916,9.211855,-3.335934,-1.385063,0.431247,-2.614429,1.045875,-0.454590,-0.612549,0.847656
1056,3149129583,9.489282,-3.234662,-1.313320,-4.845513,-6.467092,0.454337,-0.454590,-0.606201,0.848633
1057,3149146250,9.396848,-3.081866,-1.559653,-12.248935,-5.688865,0.736500,-0.455566,-0.617188,0.843994
1058,3149162917,9.253557,-2.846933,-1.427314,-6.802388,-0.137066,2.187971,-0.452881,-0.615479,0.844971
1059,3149179584,9.130176,-2.805703,-1.259434,-4.210729,0.126700,1.733833,-0.457275,-0.612549,0.843994
1060,3149196251,9.162416,-2.785882,-1.286849,-2.831958,1.032928,1.390866,-0.458252,-0.618164,0.841309
1061,3149212918,9.234988,-2.792490,-1.276242,-3.514358,-0.926757,1.327078,-0.451172,-0.618164,0.840332
1062,3149229585,9.299918,-2.800410,-1.234436,-3.232029,0.020433,2.322848,-0.455566,-0.617188,0.837646
1063,3149246252,9.446300,-2.592718,-1.168395,-2.872106,-0.550916,4.446756,-0.456543,-0.618164,0.839355
1064,3149262919,9.227760,-2.764514,-1.269872,-11.965839,-3.553189,3.486960,-0.455566,-0.623535,0.836670
1065,3149279586,9.121692,-2.835643,-1.163501,-12.197018,-4.052841,1.034773,-0.459229,-0.629150,0.835693
1066,3149296253,9.196020,-2.971961,-1.308916,-10.779121,-2.939456,-0.213533,-0.455566,-0.629150,0.833008
1067,3149312920,9.337269,-3.223534,-1.516612,-5.828926,-0.925131,0.192870,-0.455566,-0.627197,0.833984
1068,3149329587,9.293195,-3.413859,-1.700172,0.429301,0.524542,1.898829,-0.452881,-0.630859,0.833984
1069,3149346254,9.263258,-3.371591,-1.504130,5.428965,0.153132,3.138549,-0.458252,-0.630127,0.832031
1070,3149362921,9.207073,-3.023839,-1.349359,11.710216,2.136977,4.236031,-0.460205,-0.629150,0.825439
1071,3149379588,9.438346,-2.835488,-1.248888,18.173313,1.995161,5.855615,-0.459229,-0.622803,0.834717
1072,3149396255,9.197138,-3.047817,-1.074556,17.279568,-0.117844,5.074822,-0.460205,-0.617188,0.835693
1073,3149412922,10.173946,-3.323071,-0.557770,7.586438,-2.295334,5.327500,-0.460938,-0.619141,0.838379
1074,3149429589,9.383422,-3.827362,-0.685405,2.298094,3.747261,5.969317,-0.461914,-0.611816,0.838379
1075,3149446256,9.221765,-4.473560,-0.678078,-1.657923,4.677232,7.290714,-0.465576,-0.619141,0.837402
1076,3149462923,9.200445,-4.721083,-1.210828,-4.430230,3.932172,8.423975,-0.468994,-0.610840,0.838379
1077,3149479590,9.568555,-4.931607,-1.831159,5.498478,-2.487839,8.014749,-0.466309,-0.612549,0.838379
1078,3149496257,9.677875,-5.249022,-1.778907,21.443138,-0.948722,7.729064,-0.470947,-0.610840,0.837402
1079,3149512924,9.293162,-5.437050,-2.299521,17.747526,-11.014018,9.926393,-0.471680,-0.601807,0.841064
1080,3149529591,9.897479,-5.082087,-2.499727,13.863135,-21.220243,13.134005,-0.466309,-0.600830,0.847412
1081,3149546258,9.765615,-3.933736,-2.725194,8.882904,-24.326267,15.782527,-0.465332,-0.595215,0.854004
1082,3149562925,9.070809,-2.572411,-3.058447,5.418761,-26.154631,12.891852,-0.463623,-0.591553,0.856689
1083,3149579592,8.828405,-2.128665,-2.955693,15.351687,-28.698431,-0.951810,-0.460693,-0.589844,0.856689
1084,3149596259,8.465554,-1.819031,-1.948980,41.250198,-24.959822,-18.119310,-0.451660,-0.579590,0.866943
1085,3149612926,7.833214,-1.296496,-1.393421,54.699436,-23.425638,-32.635590,-0.439941,-0.575195,0.880127
1086,3149629593,7.951165,-0.359759,-0.815747,68.926384,-19.902815,-47.443989,-0.420898,-0.563232,0.892090
1087,3149646260,8.265730,0.566368,-0.577979,78.249687,-11.299830,-62.630875,-0.412842,-0.553955,0.900635
1088,3149662927,8.445798,1.211059,-0.698856,81.856155,-3.822571,-76.684685,-0.400146,-0.546631,0.917236
1089,3149679594,8.637661,1.488952,-1.186132,73.483421,-1.239509,-90.106651,-0.384766,-0.538330,0.932373
1090,3149696261,8.946295,1.636518,-0.779106,71.338516,-1.358851,-99.401276,-0.371094,-0.531982,0.942627
1091,3149712928,9.646780,1.303546,-0.222364,69.221649,-1.115097,-104.054596,-0.349609,-0.524658,0.950195
1092,3149729595,10.550619,0.531287,0.072227,73.929344,0.707164,-107.446732,-0.342285,-0.521973,0.961426
1093,3149746262,11.535816,1.208655,1.379249,56.872978,-5.494952,-110.094673,-0.318848,-0.515625,0.970947
1094,3149762929,13.253260,2.166708,1.479844,-3.023249,-6.996579,-110.838478,-0.302734,-0.523926,0.972168
1095,3149779596,11.951609,-0.376647,-1.460182,-62.639271,-11.498799,-104.203178,-0.283936,-0.547607,0.967773
1096,3149796263,13.987238,-5.993189,-2.559237,-45.891563,-22.758793,-95.243492,-0.266846,-0.573242,0.961670
1097,3149812930,12.700759,-7.347348,-1.679273,-2.773733,-6.968206,-75.887970,-0.248047,-0.587646,0.962158
1098,3149829597,9.232955,-5.242641,0.340970,39.000603,5.239518,-33.829575,-0.244385,-0.581299,0.970459
1099,3149846264,8.660984,-1.202799,-0.775280,44.778229,16.391621,-13.075537,-0.243408,-0.571289,0.970459
1100,3149862931,8.396855,-0.078976,-2.354861,12.180021,17.299398,-20.515411,-0.246094,-0.566650,0.973145
1101,3149879598,8.105576,-0.924073,-3.581318,-14.092985,10.916424,-33.574383,-0.249023,-0.572266,0.968506
1102,3149896265,9.062919,-2.130471,-3.595603,-33.595543,1.975582,-42.326275,-0.240967,-0.584961,0.964111
1103,3149912932,9.007026,-3.966465,-2.675668,-27.665459,0.670180,-35.905346,-0.232910,-0.594238,0.957764
1104,3149929599,9.699945,-4.041144,-1.935701,-15.931224,4.522003,-19.329691,-0.234619,-0.605957,0.956055
1105,3149946266,9.831858,-2.777193,-2.393931,-34.424477,6.706171,-3.896759,-0.232178,-0.612549,0.949463
1106,3149962933,8.274263,-2.400741,-1.990668,-63.474361,0.096337,7.384778,-0.231201,-0.630859,0.933838
1107,3149979600,7.119471,-3.371125,-1.483274,-50.638412,-0.803504,16.496054,-0.234863,-0.638184,0.922852
1108,3149996267,7.688505,-5.937001,-1.252107,-22.391792,1.416947,31.686440,-0.235840,-0.646484,0.913574
1109,3150012934,9.538082,-7.568949,-2.060098,-25.283411,-13.191169,52.491749,-0.240479,-0.648193,0.911621
1110,3150029601,10.959274,-5.221151,-1.717793,-31.765469,-22.288137,68.869507,-0.248535,-0.651855,0.904297
1111,3150046268,11.570836,-2.250630,-1.712127,-38.260513,-17.896553,81.937065,-0.261230,-0.653809,0.900391
1112,3150062935,10.779822,-0.206965,-1.378446,-6.122650,-17.123661,85.504311,-0.269287,-0.653809,0.894775
1113,3150079602,9.502767,-0.240627,-1.945502,50.926224,-21.150316,76.943764,-0.277344,-0.634521,0.902832
1114,3150096269,9.782154,0.452457,-1.764779,98.483269,-9.840590,55.540051,-0.282471,-0.605225,0.918213
1115,3150112936,10.020564,2.961481,-1.363336,92.728714,-10.986724,24.797478,-0.284180,-0.576904,0.936523
1116,3150129603,10.554247,4.617355,-0.583940,94.627029,-6.431655,2.878427,-0.283936,-0.553223,0.952148
1117,3150146270,10.652894,5.532115,0.689290,106.966484,-6.604567,-10.809793,-0.282959,-0.521240,0.968506
1118,3150162937,10.635532,5.820584,0.140308,54.661846,-13.082704,-23.644634,-0.274658,-0.507568,0.975098
1119,3150179604,9.968778,4.782832,-1.167793,-7.886561,-21.073236,-48.222420,-0.265869,-0.510254,0.973389
1120,3150196271,9.048331,2.658959,0.518192,5.698553,-10.465990,-71.510094,-0.249512,-0.521240,0.973633
1121,3150212938,11.104607,0.413127,2.139397,31.508472,-0.195968,-80.053520,-0.236084,-0.514893,0.978271
1122,3150229605,13.127776,1.849700,0.080303,24.252489,12.342469,-79.281013,-0.228027,-0.517578,0.991455
1123,3150246272,12.611468,3.218126,-0.366629,-14.459837,7.668570,-68.036850,-0.221680,-0.528564,0.980469
1124,3150262939,12.517137,1.266763,-0.687959,-52.882603,2.753846,-62.011116,-0.210938,-0.541504,0.976074
1125,3150279606,10.080921,-0.666751,-2.287591,-66.263016,1.607642,-54.255474,-0.206543,-0.563232,0.963379
1126,3150296273,8.413215,-0.663985,-2.288255,-56.289341,8.840087,-49.480679,-0.199463,-0.584473,0.957031
1127,3150312940,8.870206,-0.886966,-1.965107,-63.666702,18.006231,-49.841209,-0.193359,-0.605469,0.935059
1128,3150329607,10.300438,-1.679250,-2.450317,-53.199364,19.728458,-55.284134,-0.192627,-0.622803,0.931396
1129,3150346274,11.206286,-1.355121,-3.543472,-39.851650,20.096745,-55.580528,-0.189209,-0.639404,0.914062
1130,3150362941,11.327594,-1.130422,-3.135101,-21.755316,18.576590,-52.839573,-0.181152,-0.652100,0.908691
1131,3150379608,10.483662,-1.479863,-2.179614,-30.291445,14.157660,-50.810455,-0.174805,-0.658691,0.902344
1132,3150396275,10.505651,-2.720040,-1.848254,-30.431904,14.491962,-50.299858,-0.167725,-0.664062,0.895996
1133,3150412942,9.398482,-3.375633,-1.954004,-20.726353,18.112034,-46.781147,-0.161621,-0.685059,0.891602
1134,3150429609,8.194610,-3.918786,-1.518591,-11.713183,21.819420,-42.509312,-0.156982,-0.685303,0.881348
1135,3150446276,7.520208,-4.905153,-1.680747,-8.109938,22.989267,-39.354759,-0.154297,-0.691650,0.877686
1136,3150462943,7.009671,-7.087832,-3.299167,-19.856220,22.672464,-33.337536,-0.150879,-0.698975,0.874268
1137,3150479610,6.035200,-8.842797,-4.528930,7.209358,12.186224,-20.666574,-0.148193,-0.698975,0.873291
1138,3150496277,6.251815,-8.673456,-4.088433,91.368050,10.829495,5.947659,-0.149902,-0.690674,0.884277
1139,3150512944,6.477845,-8.331226,-3.714092,112.555107,4.546040,38.521877,-0.150635,-0.651367,0.897949
1140,3150529611,7.133306,-7.736563,-3.557369,100.271248,-8.474406,69.022423,-0.167480,-0.625732,0.918701
1141,3150546278,8.004330,-6.769340,-2.683228,89.829697,-16.479349,100.760887,-0.175293,-0.592041,0.929443
1142,3150562945,9.259553,-6.237793,-0.894757,87.370346,-17.775707,131.586288,-0.186768,-0.556396,0.943848
1143,3150579612,10.806571,-3.415845,0.743710,84.506691,-20.418060,158.197479,-0.199219,-0.521729,0.952881
1144,3150596279,11.123979,1.384983,2.381124,61.547771,-15.651973,161.063736,-0.220703,-0.494141,0.964355
1145,3150612946,13.858568,5.038099,2.234112,-6.088666,-16.390007,145.775482,-0.236816,-0.479492,0.962158
1146,3150629613,15.961346,1.780926,-4.695331,-5.733678,-9.292317,126.623947,-0.250244,-0.470459,0.959229
1147,3150646280,17.049541,-1.601748,-4.170054,-5.611471,-30.490355,123.130730,-0.259277,-0.456787,0.962646
1148,3150662947,17.859697,-3.523185,0.482744,-106.804207,-59.704433,125.461586,-0.261230,-0.469727,0.947998
1149,3150679614,17.130072,-2.615158,1.028969,-66.354439,-62.773823,118.362930,-0.254883,-0.482422,0.942627
1150,3150696281,15.836843,-3.153441,1.234802,29.195698,-37.721458,112.755508,-0.261230,-0.466064,0.947754
1151,3150712948,13.671224,-2.136123,2.128627,81.708267,-13.706520,108.140839,-0.271729,-0.443115,0.950439
1152,3150729615,12.247406,-0.250834,1.858016,101.766472,1.038186,95.165909,-0.284180,-0.403076,0.964600
1153,3150746282,10.841043,1.469263,1.334278,54.352264,-5.695125,72.895020,-0.292236,-0.376709,0.961670
1154,3150762949,7.868225,4.903745,-0.012251,-17.851151,-28.033211,45.865761,-0.293945,-0.369385,0.958740
1155,3150779616,4.666449,9.982827,0.027998,-85.138237,-21.324547,26.190088,-0.284180,-0.385742,0.957031
1156,3150796283,2.372290,6.888410,-0.088892,-175.610886,-6.951749,-6.110178,-0.286133,-0.427002,0.930420
1157,3150812950,2.523053,-7.481106,1.079070,-127.177399,6.469433,-44.035221,-0.279297,-0.472656,0.917969
1158,3150829617,-0.144721,-8.764250,1.526259,4.552014,31.041988,-63.207146,-0.272217,-0.479004,0.912598
1159,3150846284,-0.328905,-5.143893,-8.418947,45.080242,44.073494,-51.566620,-0.281006,-0.471680,0.909668
1160,3150862951,7.482872,15.041981,2.474379,80.090126,46.336937,-53.627838,-0.288086,-0.456299,0.917725
1161,3150879618,10.878453,19.125143,-2.184625,-190.046387,25.596737,-108.707428,-0.283936,-0.495605,0.895020
1162,3150896285,10.974665,-9.689137,-9.111289,-165.196686,15.691648,-155.064117,-0.260986,-0.558594,0.869873
1163,3150912952,10.652540,0.527717,-8.799838,-41.675804,21.994637,-88.384941,-0.250244,-0.583252,0.851562
1164,3150929619,16.730101,2.819321,-7.229747,-12.490988,14.372884,-92.378891,-0.244141,-0.588867,0.847168
1165,3150946286,20.487738,-2.644463,-3.040107,18.519693,20.528580,-149.587463,-0.220703,-0.603516,0.842773
1166,3150962953,21.096901,-2.380267,-0.547013,60.572296,39.332512,-150.688522,-0.202637,-0.598877,0.852295
1167,3150979620,20.895639,6.865638,2.955516,39.274689,54.317020,-147.631119,-0.192871,-0.599854,0.855225
1168,3150996287,23.574913,7.349351,4.163086,-70.687775,72.814964,-162.905624,-0.175781,-0.616455,0.836914
1169,3151012954,24.265881,-1.758079,3.094163,-134.733032,108.067902,-180.576584,-0.165283,-0.656006,0.808594
1170,3151029621,20.072275,-5.007706,-0.286459,-114.858360,146.820160,-179.535629,-0.158447,-0.695312,0.776611
1171,3151046288,16.735659,-5.252218,-1.768966,-42.366608,175.352142,-179.790848,-0.160400,-0.715576,0.749023
1172,3151062955,14.158677,-13.809139,-0.857158,39.563732,190.330048,-204.488907,-0.149658,-0.725586,0.743652
1173,3151079622,5.831072,-20.165655,-6.907593,81.750122,179.087387,-180.878189,-0.152344,-0.718506,0.746338
1174,3151096289,-3.979165,-23.521626,-27.994642,23.166153,94.892815,-99.538788,-0.148682,-0.717529,0.745361
1175,3151112956,-0.642666,-17.599274,-17.191528,103.300583,84.181198,-36.442188,-0.148682,-0.702881,0.752686
1176,3151129623,0.933203,-10.036942,0.157527,153.476120,108.621124,-11.768549,-0.172607,-0.666260,0.776123
